<?xml version="1.0" encoding="UTF-8"?>
<!--Element count: 1938-->
<Bundle xmlns="http://hl7.org/fhir">
   <id value="eICR-bundle-db734647-fc99-424c-a864-7e3cda82e704"/>
   <meta>
      <profile value="http://hl7.org/fhir/us/ecr/StructureDefinition/eicr-document-bundle"/>
   </meta>
   <identifier>
      <system value="urn:oid:2.16.840.1.113883.9.9.9.9.9"/>
      <value value="db734647-fc99-424c-a864-7e3cda82e704"/>
   </identifier>
   <type value="document"/>
   <timestamp value="2020-11-07T09:44:21.000-05:00"/>
   <entry>
      <fullUrl value="urn:uuid:6b0c6c01-a12b-11ef-d133-09173f13e4c5"/>
      <resource>
         <Composition>
            <meta>
               <profile value="http://hl7.org/fhir/us/ecr/StructureDefinition/eicr-composition"/>
               <!--CDA templateId: urn:hl7ii:2.16.840.1.113883.10.20.15.2:2022-05-01-->
            </meta>
            <language value="en-US"/>
            <text>
               <status value="generated"/>
               <div xmlns="http://www.w3.org/1999/xhtml" xml:lang="en-US" lang="en-US">
                  <table class="header_table"
                         style="border: 1pt inset #00008b; line-height: 10pt; width: 100%;">
                     <tbody>
                        <tr>
                           <td class="td_header_role_name"
                               style="width: 20%; background-color: #3399ff; padding: 0.1cm 0.2cm; vertical-align: top; background-color: #ffffcc;">
                              <span class="td_label">Document Id</span>
                           </td>
                           <td class="td_header_role_value">db734647-fc99-424c-a864-7e3cda82e704 2.16.840.1.113883.9.9.9.9.9</td>
                        </tr>
                        <tr>
                           <td class="td_header_role_name"
                               style="width: 20%; background-color: #3399ff; padding: 0.1cm 0.2cm; vertical-align: top; background-color: #ffffcc;">
                              <span class="td_label">Document Created:</span>
                           </td>
                           <td class="td_header_role_value">November 7, 2020, 09:44:21, EST </td>
                        </tr>
                     </tbody>
                  </table>
                  <table class="header_table"
                         style="border: 1pt inset #00008b; line-height: 10pt; width: 100%;">
                     <tbody><!--Author-->
                        <tr>
                           <td class="td_header_role_name"
                               style="width: 20%; background-color: #3399ff; padding: 0.1cm 0.2cm; vertical-align: top; background-color: #ffffcc;">
                              <span class="td_label">Author</span>
                           </td>
                           <td class="td_header_role_value"/>
                        </tr>
                        <tr>
                           <td class="td_header_role_name"
                               style="width: 20%; background-color: #3399ff; padding: 0.1cm 0.2cm; vertical-align: top; background-color: #ffffcc;">
                              <span class="td_label">Contact info</span>
                           </td>
                           <td class="td_header_role_value">1002 Healthcare Drive<br/>CHICAGO, IL 60612, USA<br/>Tel (Work Place):  +1-(555)555-1212;ext=9998<br/>
                           </td>
                        </tr>
                     </tbody>
                  </table>
                  <table class="header_table"
                         style="border: 1pt inset #00008b; line-height: 10pt; width: 100%;">
                     <tbody><!--encompassingEncounter-->
                        <tr>
                           <td class="td_header_role_name"
                               style="width: 20%; background-color: #3399ff; padding: 0.1cm 0.2cm; vertical-align: top; background-color: #ffffcc;">
                              <span class="td_label">Encounter Id</span>
                           </td>
                           <td class="td_header_role_value">9937012 2.16.840.1.113883.19</td>
                        </tr>
                        <tr>
                           <td class="td_header_role_name"
                               style="width: 20%; background-color: #3399ff; padding: 0.1cm 0.2cm; vertical-align: top; background-color: #ffffcc;">
                              <span class="td_label">Encounter Type</span>
                           </td>
                           <td class="td_header_role_value">Ambulatory</td>
                        </tr>
                        <tr>
                           <td class="td_header_role_name"
                               style="width: 20%; background-color: #3399ff; padding: 0.1cm 0.2cm; vertical-align: top; background-color: #ffffcc;">
                              <span class="td_label">Encounter Date</span>
                           </td>
                           <td class="td_header_role_value"> From November 7, 2020, 08:44:21, EST  to November 8, 2020, 11:21:03, EST </td>
                        </tr>
                        <tr>
                           <td class="td_header_role_name"
                               style="width: 20%; background-color: #3399ff; padding: 0.1cm 0.2cm; vertical-align: top; background-color: #ffffcc;">
                              <span class="td_label">Encounter Location</span>
                           </td>
                           <td class="td_header_role_value">Outpatient facility</td>
                        </tr>
                        <tr>
                           <td class="td_header_role_name"
                               style="width: 20%; background-color: #3399ff; padding: 0.1cm 0.2cm; vertical-align: top; background-color: #ffffcc;">
                              <span class="td_label">Responsible party</span>
                           </td>
                           <td class="td_header_role_value">Henry Seven, M.D. of Community Health and Hospitals</td>
                        </tr>
                        <tr>
                           <td class="td_header_role_name"
                               style="width: 20%; background-color: #3399ff; padding: 0.1cm 0.2cm; vertical-align: top; background-color: #ffffcc;">
                              <span class="td_label">Contact info</span>
                           </td>
                           <td class="td_header_role_value">1002 Healthcare Drive<br/>CHICAGO, IL 60612, USA<br/>Tel (Work Place):  +1(555)555-1003<br/>Fax (Work Place):  +1(555)555-1234<br/>Mail (Work Place):  mail@provider_domain.com<br/>
                           </td>
                        </tr>
                     </tbody>
                  </table>
                  <table class="header_table"
                         style="border: 1pt inset #00008b; line-height: 10pt; width: 100%;">
                     <tbody>
                        <tr>
                           <td class="td_header_role_name"
                               style="width: 20%; background-color: #3399ff; padding: 0.1cm 0.2cm; vertical-align: top; background-color: #ffffcc;">
                              <span class="td_label">Document maintained by</span>
                           </td>
                           <td class="td_header_role_value">Good Health Hospital</td>
                        </tr>
                        <tr>
                           <td class="td_header_role_name"
                               style="width: 20%; background-color: #3399ff; padding: 0.1cm 0.2cm; vertical-align: top; background-color: #ffffcc;">
                              <span class="td_label">Contact info</span>
                           </td>
                           <td class="td_header_role_value">1002 Healthcare Drive<br/>CHICAGO, IL 60612, USA<br/>Tel (Work Place):  +1(555)555-1212<br/>
                           </td>
                        </tr>
                     </tbody>
                  </table>
               </div>
            </text>
            <!--Version Number-->
            <extension url="http://hl7.org/fhir/StructureDefinition/composition-clinicaldocument-versionNumber">
               <valueString value="2"/>
            </extension>
            <identifier>
               <system value="urn:oid:2.16.840.1.113883.3.117.1.1.5.2.1.1.1"/>
               <value value="31"/>
            </identifier>
            <status value="final"/>
            <type>
               <coding>
                  <system value="http://loinc.org"/>
                  <code value="55751-2"/>
                  <display value="Public health Case report"/>
               </coding>
            </type>
            <subject>
               <reference value="urn:uuid:6b0c9adc-a12b-11ef-d133-09173f13e4c5"/>
            </subject>
            <encounter>
               <reference value="urn:uuid:6b0e6ee3-a12b-11ef-d133-09173f13e4c5"/>
            </encounter>
            <date value="2020-11-07T09:44:21.000-05:00"/>
            <author>
               <reference value="urn:uuid:6b0e6ec7-a12b-11ef-d133-09173f13e4c5"/>
            </author>
            <title value="Initial Public Health Case Report"/>
            <confidentiality value="N"/>
            <custodian>
               <reference value="urn:uuid:6b0e6ecd-a12b-11ef-d133-09173f13e4c5"/>
            </custodian>
            <relatesTo>
               <code value="transforms"/>
               <targetIdentifier>
                  <system value="urn:oid:2.16.840.1.113883.9.9.9.9.9"/>
                  <value value="db734647-fc99-424c-a864-7e3cda82e704"/>
               </targetIdentifier>
            </relatesTo>
            <relatesTo>
               <code value="replaces"/>
               <targetIdentifier>
                  <system value="urn:oid:2.16.840.1.113883.9.9.9.9.9"/>
                  <value value="db734647-fc99-424c-a864-7e3cda82e704"/>
               </targetIdentifier>
            </relatesTo>
            <section>
               <title value="Plan of Treatment"/>
               <code>
                  <coding>
                     <system value="http://loinc.org"/>
                     <code value="18776-5"/>
                     <display value="Plan of care note"/>
                  </coding>
               </code>
               <text>
                  <status value="additional"/>
                  <div xmlns="http://www.w3.org/1999/xhtml">
                     <table>
                        <thead>
                           <tr>
                              <th>Initial Case Report Trigger
										<br/>Code Lab Test Order
									</th>
                              <th>Trigger Code</th>
                              <th>Trigger Code codeSystem</th>
                              <th>RCTC OID</th>
                              <th>RCTC Version</th>
                              <th>Ordered Date</th>
                           </tr>
                        </thead>
                        <tbody>
                           <tr>
                              <td>Zika virus envelope (E) gene [Presence] in Serum
										<br/>by Probe and target amplification method
									</td>
                              <td>80825-3</td>
                              <td>LOINC</td>
                              <td>2.16.840.1.114222.4.11.7508</td>
                              <td>19/05/2020</td>
                              <td>NOV 8, 2020</td>
                           </tr>
                        </tbody>
                     </table>
                  </div>
               </text>
               <!--2.16.840.1.113883.10.20.22.4.44-->
               <!--2.16.840.1.113883.10.20.22.4.44:2014-06-09-->
               <!--2.16.840.1.113883.10.20.15.2.3.4:2019-04-01-->
               <entry><!--eICR Trigger Code Flag Extension-->
                  <extension url="http://hl7.org/fhir/us/ecr/StructureDefinition/eicr-trigger-code-flag-extension">
                     <extension url="triggerCodeValueSet">
                        <valueOid value="urn:oid:2.16.840.1.114222.4.11.7508"/>
                     </extension>
                     <extension url="triggerCodeValueSetVersion">
                        <valueString value="2020-11-13"/>
                     </extension>
                     <extension url="triggerCode">
                        <valueCoding>
                           <system value="http://loinc.org"/>
                           <code value="80825-3"/>
                           <display value="Zika virus envelope E gene [Presence] in Serum by NAA with probe detection"/>
                        </valueCoding>
                     </extension>
                  </extension>
                  <reference value="urn:uuid:6b0e6f5c-a12b-11ef-d133-09173f13e4c5"/>
               </entry>
               <!--2.16.840.1.113883.10.20.22.4.41:2014-06-09-->
               <!--2.16.840.1.113883.10.20.15.2.3.42:2021-01-01-->
               <entry><!--eICR Trigger Code Flag Extension-->
                  <extension url="http://hl7.org/fhir/us/ecr/StructureDefinition/eicr-trigger-code-flag-extension">
                     <extension url="triggerCodeValueSet">
                        <valueOid value="urn:oid:2.16.840.1.114222.4.11.7508"/>
                     </extension>
                     <extension url="triggerCodeValueSetVersion">
                        <valueString value="2020-11-13"/>
                     </extension>
                     <extension url="triggerCode">
                        <valueCoding>
                           <system value="http://snomed.info/sct"/>
                           <code value="233573008"/>
                           <display value="Extracorporeal membrane oxygenation (procedure)"/>
                        </valueCoding>
                     </extension>
                  </extension>
                  <reference value="urn:uuid:6b0e6f6d-a12b-11ef-d133-09173f13e4c5"/>
               </entry>
               <!--2.16.840.1.113883.10.20.22.4.39:2014-06-09-->
               <!--2.16.840.1.113883.10.20.15.2.3.41:2021-01-01-->
               <entry><!--eICR Trigger Code Flag Extension-->
                  <extension url="http://hl7.org/fhir/us/ecr/StructureDefinition/eicr-trigger-code-flag-extension">
                     <extension url="triggerCodeValueSet">
                        <valueOid value="urn:oid:2.16.840.1.114222.4.11.7508"/>
                     </extension>
                     <extension url="triggerCodeValueSetVersion">
                        <valueString value="2020-11-13"/>
                     </extension>
                     <extension url="triggerCode">
                        <valueCoding>
                           <system value="http://snomed.info/sct"/>
                           <code value="409524006"/>
                           <display value="Airborne precautions (procedure)"/>
                        </valueCoding>
                     </extension>
                  </extension>
                  <reference value="urn:uuid:6b0e6f7a-a12b-11ef-d133-09173f13e4c5"/>
               </entry>
               <!--2.16.840.1.113883.10.20.22.4.44:2014-06-09-->
               <!--2.16.840.1.113883.10.20.15.2.3.43:2021-01-01-->
               <entry><!--eICR Trigger Code Flag Extension-->
                  <extension url="http://hl7.org/fhir/us/ecr/StructureDefinition/eicr-trigger-code-flag-extension">
                     <extension url="triggerCodeValueSet">
                        <valueOid value="urn:oid:2.16.840.1.114222.4.11.7508"/>
                     </extension>
                     <extension url="triggerCodeValueSetVersion">
                        <valueString value="2020-11-13"/>
                     </extension>
                     <extension url="triggerCode">
                        <valueCoding>
                           <system value="http://snomed.info/sct"/>
                           <code value="385857005"/>
                           <display value="Ventilator care and adjustment (regime/therapy)"/>
                        </valueCoding>
                     </extension>
                  </extension>
                  <reference value="urn:uuid:6b0e6f86-a12b-11ef-d133-09173f13e4c5"/>
               </entry>
            </section>
            <section>
               <title value="History of Present Illness"/>
               <code>
                  <coding>
                     <system value="http://loinc.org"/>
                     <code value="10164-2"/>
                     <display value="History of Present illness Narrative"/>
                  </coding>
               </code>
               <text>
                  <status value="generated"/>
                  <div xmlns="http://www.w3.org/1999/xhtml">
                     <p> Persistent Cough REPORTED starting on 2020/10/05
							<br/> Whooping Respiration not reported
							<br/> Paroxysms Of Coughing REPORTED starting on 2020/11/04
							<br/> Post-tussive vomiting not reported
							<br/>
                     </p>
                  </div>
               </text>
            </section>
            <section>
               <title value="Medications Administered"/>
               <code>
                  <coding>
                     <system value="http://loinc.org"/>
                     <code value="29549-3"/>
                     <display value="Medication administered Narrative"/>
                  </coding>
               </code>
               <text>
                  <status value="generated"/>
                  <div xmlns="http://www.w3.org/1999/xhtml">
                     <table>
                        <thead>
                           <tr>
                              <th>Medication</th>
                              <th>Dose</th>
                              <th>Duration</th>
                              <th>Route</th>
                           </tr>
                        </thead>
                        <tbody>
                           <tr>
                              <td>Azithromycin 500 MG Oral Tablet</td>
                              <td>1 g</td>
                              <td>NOV 7, 2020 11:59</td>
                              <td>ORAL</td>
                           </tr>
                        </tbody>
                     </table>
                  </div>
               </text>
               <!--2.16.840.1.113883.10.20.22.4.16-->
               <!--2.16.840.1.113883.10.20.22.4.16:2014-06-09-->
               <entry><!--eICR Trigger Code Flag Extension-->
                  <extension url="http://hl7.org/fhir/us/ecr/StructureDefinition/eicr-trigger-code-flag-extension">
                     <extension url="triggerCodeValueSet">
                        <valueOid value="urn:oid:2.16.840.1.114222.4.11.7508"/>
                     </extension>
                     <extension url="triggerCodeValueSetVersion">
                        <valueString value="2020-11-13"/>
                     </extension>
                     <extension url="triggerCode">
                        <valueCoding>
                           <system value="http://www.nlm.nih.gov/research/umls/rxnorm"/>
                           <code value="248656"/>
                           <display value="Azithromycin 500 MG Oral Tablet"/>
                        </valueCoding>
                     </extension>
                  </extension>
                  <reference value="urn:uuid:6b0e7045-a12b-11ef-d133-09173f13e4c5"/>
               </entry>
            </section>
            <section>
               <title value="MEDICATIONS"/>
               <code>
                  <coding>
                     <system value="http://loinc.org"/>
                     <code value="10160-0"/>
                     <display value="History of Medication use Narrative"/>
                  </coding>
               </code>
               <text>
                  <status value="additional"/>
                  <div xmlns="http://www.w3.org/1999/xhtml">             Narrative Text           </div>
               </text>
               <!--2.16.840.1.113883.10.20.22.4.16:2014-06-09-->
               <entry>
                  <reference value="urn:uuid:6b0e706c-a12b-11ef-d133-09173f13e4c5"/>
               </entry>
               <!--2.16.840.1.113883.10.20.22.4.16:2014-06-09-->
               <entry>
                  <reference value="urn:uuid:6b0e709e-a12b-11ef-d133-09173f13e4c5"/>
               </entry>
               <!--2.16.840.1.113883.10.20.22.4.9:2014-06-09-->
               <entry>
                  <reference value="urn:uuid:6b0e707f-a12b-11ef-d133-09173f13e4c5"/>
               </entry>
               <!--2.16.840.1.113883.10.20.22.4.16:2014-06-09-->
               <entry>
                  <reference value="urn:uuid:6b0e708b-a12b-11ef-d133-09173f13e4c5"/>
               </entry>
            </section>
            <section>
               <title value="Admission Medications"/>
               <code>
                  <coding>
                     <system value="http://loinc.org"/>
                     <code value="42346-7"/>
                  </coding>
               </code>
               <text>
                  <status value="additional"/>
                  <div xmlns="http://www.w3.org/1999/xhtml">Some text here</div>
               </text>
               <!--2.16.840.1.113883.10.20.22.4.36:2014-06-09-->
               <entry>
                  <reference value="urn:uuid:6b0e70c5-a12b-11ef-d133-09173f13e4c5"/>
               </entry>
               <!--2.16.840.1.113883.10.20.22.4.16:2014-06-09-->
               <entry><!--eICR Trigger Code Flag Extension-->
                  <extension url="http://hl7.org/fhir/us/ecr/StructureDefinition/eicr-trigger-code-flag-extension">
                     <extension url="triggerCodeValueSet">
                        <valueOid value="urn:oid:2.16.840.1.114222.4.11.7508"/>
                     </extension>
                     <extension url="triggerCodeValueSetVersion">
                        <valueString value="2020-11-13"/>
                     </extension>
                     <extension url="triggerCode">
                        <valueCoding>
                           <system value="http://www.nlm.nih.gov/research/umls/rxnorm"/>
                           <code value="248656"/>
                           <display value="Azithromycin 500 MG Oral Tablet"/>
                        </valueCoding>
                     </extension>
                  </extension>
                  <reference value="urn:uuid:6b0e70c9-a12b-11ef-d133-09173f13e4c5"/>
               </entry>
            </section>
            <section>
               <title value="HOSPITAL ADMISSION DIAGNOSIS"/>
               <code>
                  <coding>
                     <system value="http://loinc.org"/>
                     <code value="46241-6"/>
                     <display value="Hospital Admission             Diagnosis"/>
                  </coding>
                  <coding>
                     <system value="http://loinc.org"/>
                     <code value="42347-5"/>
                     <display value="Admission Diagnosis"/>
                  </coding>
               </code>
               <text>
                  <status value="additional"/>
                  <div xmlns="http://www.w3.org/1999/xhtml">Appendicitis</div>
               </text>
               <!--2.16.840.1.113883.10.20.22.4.4-->
               <!--2.16.840.1.113883.10.20.22.4.4:2015-08-01-->
               <!--2.16.840.1.113883.10.20.15.2.3.3:2021-01-01-->
               <entry><!--eICR Trigger Code Flag Extension-->
                  <extension url="http://hl7.org/fhir/us/ecr/StructureDefinition/eicr-trigger-code-flag-extension">
                     <extension url="triggerCodeValueSet">
                        <valueOid value="urn:oid:2.16.840.1.114222.4.11.7508"/>
                     </extension>
                     <extension url="triggerCodeValueSetVersion">
                        <valueString value="2020-11-13"/>
                     </extension>
                     <extension url="triggerCode">
                        <valueCoding>
                           <system value="http://snomed.info/sct"/>
                           <code value="27836007"/>
                           <display value="Pertussis (disorder)"/>
                        </valueCoding>
                     </extension>
                  </extension>
                  <reference value="urn:uuid:6b0e70ea-a12b-11ef-d133-09173f13e4c5"/>
               </entry>
            </section>
            <section>
               <title value="Discharge Diagnosis"/>
               <code>
                  <coding>
                     <system value="http://loinc.org"/>
                     <code value="11535-2"/>
                     <display value="Hospital Discharge Diagnosis"/>
                  </coding>
                  <coding>
                     <system value="http://loinc.org"/>
                     <code value="78375-3"/>
                     <display value="Discharge Diagnosis"/>
                  </coding>
               </code>
               <text>
                  <status value="additional"/>
                  <div xmlns="http://www.w3.org/1999/xhtml">Some text here</div>
               </text>
               <!--2.16.840.1.113883.10.20.22.4.33:2015-08-01-->
               <entry>
                  <reference value="urn:uuid:6b0e7104-a12b-11ef-d133-09173f13e4c5"/>
               </entry>
               <!--2.16.840.1.113883.10.20.22.4.4-->
               <!--2.16.840.1.113883.10.20.22.4.4:2015-08-01-->
               <!--2.16.840.1.113883.10.20.15.2.3.3:2021-01-01-->
               <entry><!--eICR Trigger Code Flag Extension-->
                  <extension url="http://hl7.org/fhir/us/ecr/StructureDefinition/eicr-trigger-code-flag-extension">
                     <extension url="triggerCodeValueSet">
                        <valueOid value="urn:oid:2.16.840.1.114222.4.11.7508"/>
                     </extension>
                     <extension url="triggerCodeValueSetVersion">
                        <valueString value="2020-11-13"/>
                     </extension>
                     <extension url="triggerCode">
                        <valueCoding>
                           <system value="http://snomed.info/sct"/>
                           <code value="27836007"/>
                           <display value="Pertussis (disorder)"/>
                        </valueCoding>
                     </extension>
                  </extension>
                  <reference value="urn:uuid:6b0e710c-a12b-11ef-d133-09173f13e4c5"/>
               </entry>
            </section>
            <section>
               <title value="REVIEW OF SYSTEMS"/>
               <code>
                  <coding>
                     <system value="http://loinc.org"/>
                     <code value="10187-3"/>
                     <display value="REVIEW OF SYSTEMS"/>
                  </coding>
               </code>
               <text>
                  <status value="generated"/>
                  <div xmlns="http://www.w3.org/1999/xhtml">
                     <p>               Patient denies recent history of fever or malaise. Positive               For weakness and shortness of breath. One episode of melena. No recent               headaches. Positive for osteoarthritis in hips, knees and hands.             </p>
                  </div>
               </text>
            </section>
            <section>
               <title value="Problems"/>
               <code>
                  <coding>
                     <system value="http://loinc.org"/>
                     <code value="11450-4"/>
                     <display value="Problem list - Reported"/>
                  </coding>
               </code>
               <text>
                  <status value="generated"/>
                  <div xmlns="http://www.w3.org/1999/xhtml">
                     <table>
                        <thead>
                           <tr>
                              <th>Concern</th>
                              <th>Concern Status</th>
                              <th>Date(s)</th>
                           </tr>
                        </thead>
                        <tbody>
                           <tr>
                              <td>Problem</td>
                              <td>active</td>
                              <td>NOV 7, 2020</td>
                           </tr>
                           <tr>
                              <td>
                                 <ul>
                                    <li>
                                       <table>
                                          <thead>
                                             <tr>
                                                <th>Problem Type</th>
                                                <th>Problem</th>
                                                <th>Date(s)</th>
                                             </tr>
                                          </thead>
                                          <tbody>
                                             <tr>
                                                <td>Symptom</td>
                                                <td>Dark stools (finding)</td>
                                                <td>NOV 1, 2020</td>
                                             </tr>
                                             <tr>
                                                <td>Complaint</td>
                                                <td>Paroxysmal cough (finding)</td>
                                                <td>NOV 4, 2020</td>
                                             </tr>
                                          </tbody>
                                       </table>
                                    </li>
                                 </ul>
                              </td>
                           </tr>
                        </tbody>
                     </table>
                     <table>
                        <thead>
                           <tr>
                              <th>Concern</th>
                              <th>Concern Status</th>
                              <th>Date(s)</th>
                           </tr>
                        </thead>
                        <tbody>
                           <tr>
                              <td>Problem</td>
                              <td>active</td>
                              <td>MAY 23, 2020</td>
                           </tr>
                        </tbody>
                     </table>
                  </div>
               </text>
               <!--2.16.840.1.113883.10.20.22.4.4-->
               <!--2.16.840.1.113883.10.20.22.4.4:2015-08-01-->
               <entry>
                  <reference value="urn:uuid:6b0e716a-a12b-11ef-d133-09173f13e4c5"/>
               </entry>
               <!--2.16.840.1.113883.10.20.22.4.4-->
               <!--2.16.840.1.113883.10.20.22.4.4:2015-08-01-->
               <entry>
                  <reference value="urn:uuid:6b0e717a-a12b-11ef-d133-09173f13e4c5"/>
               </entry>
               <!--2.16.840.1.113883.10.20.22.4.4-->
               <!--2.16.840.1.113883.10.20.22.4.4:2015-08-01-->
               <entry>
                  <reference value="urn:uuid:6b0e7197-a12b-11ef-d133-09173f13e4c5"/>
               </entry>
               <!--2.16.840.1.113883.10.20.22.4.4-->
               <!--2.16.840.1.113883.10.20.22.4.4:2015-08-01-->
               <entry>
                  <reference value="urn:uuid:6b0e71a7-a12b-11ef-d133-09173f13e4c5"/>
               </entry>
            </section>
            <section>
               <title value="Chief Complaint"/>
               <code>
                  <coding>
                     <system value="http://loinc.org"/>
                     <code value="10154-3"/>
                     <display value="Chief complaint Narrative - Reported"/>
                  </coding>
               </code>
               <text>
                  <status value="generated"/>
                  <div xmlns="http://www.w3.org/1999/xhtml">
                     <p>Chief Complaint (the patient's own description): Headache and rash</p>
                  </div>
               </text>
            </section>
            <section>
               <title value="Reason for Visit"/>
               <code>
                  <coding>
                     <system value="http://loinc.org"/>
                     <code value="29299-5"/>
                     <display value="Reason for visit Narrative"/>
                  </coding>
               </code>
               <text>
                  <status value="generated"/>
                  <div xmlns="http://www.w3.org/1999/xhtml">
                     <p>Reason for Visit (as documented by provider): Headache, rash, and fever</p>
                  </div>
               </text>
            </section>
            <section>
               <title value="Results"/>
               <code>
                  <coding>
                     <system value="http://loinc.org"/>
                     <code value="30954-2"/>
                     <display value="Relevant diagnostic tests/laboratory data Narrative"/>
                  </coding>
               </code>
               <text>
                  <status value="generated"/>
                  <div xmlns="http://www.w3.org/1999/xhtml">
                     <table>
                        <thead>
                           <tr>
                              <th>Results Panel</th>
                              <th>Date(s)</th>
                           </tr>
                        </thead>
                        <tbody>
                           <tr>
                              <td>CBC W Auto Differential panel in Blood</td>
                              <td>NOV 7, 2020 to NOV 7, 2020</td>
                           </tr>
                           <tr>
                              <td>
                                 <ul>
                                    <li>
                                       <table>
                                          <thead>
                                             <tr>
                                                <th>Test</th>
                                                <th>Outcome</th>
                                                <th>Interpretation</th>
                                                <th>Date(s)</th>
                                                <th>Reference Range</th>
                                                <th>Reference Range Interpretation</th>
                                                <th>Reference Range Description</th>
                                             </tr>
                                          </thead>
                                          <tbody>
                                             <tr>
                                                <td>Hematocrit</td>
                                                <td>35.3 %</td>
                                                <td>Low</td>
                                                <td>NOV 7, 2020</td>
                                                <td>34.9 % to 44.5 %</td>
                                                <td>Low</td>
                                                <td>Low</td>
                                             </tr>
                                             <tr>
                                                <td>Lymphocytes [#/​volume] in Blood by Automated count</td>
                                                <td>5.2 10*3/uL</td>
                                                <td>High</td>
                                                <td>NOV 7, 2020</td>
                                                <td>1.0 10*3/uL to 4.8 10*3/uL</td>
                                                <td>Normal</td>
                                                <td/>
                                             </tr>
                                          </tbody>
                                       </table>
                                    </li>
                                 </ul>
                              </td>
                           </tr>
                        </tbody>
                     </table>
                     <table>
                        <thead>
                           <tr>
                              <th>Results Panel</th>
                              <th>Date(s)</th>
                           </tr>
                        </thead>
                        <tbody>
                           <tr>
                              <td>Bordetella pertussis Ab
										<br/>[Units/volume] in Serum
									</td>
                              <td>NOV 7, 2020 to NOV 7, 2020</td>
                           </tr>
                           <tr>
                              <td>
                                 <ul>
                                    <li>
                                       <table>
                                          <thead>
                                             <tr>
                                                <th>Initial Case Report Trigger
																<br/>Code Result Observation 
															</th>
                                                <th>Trigger Code</th>
                                                <th>Trigger Code codeSystem</th>
                                                <th>RCTC OID</th>
                                                <th>RCTC Version</th>
                                                <th>Outcome</th>
                                                <th>Interpretation</th>
                                                <th>Date(s)</th>
                                                <th>Reference Range</th>
                                                <th>Reference Range Interpretation</th>
                                             </tr>
                                          </thead>
                                          <tbody>
                                             <tr>
                                                <td>Bordetella pertussis Ab
																<br/>[Units/volume] in Serum
															</td>
                                                <td>11585-7</td>
                                                <td>LOINC</td>
                                                <td>2.16.840.1.114222.4.11.7508</td>
                                                <td>19/05/2020</td>
                                                <td>100 [iU]/mL</td>
                                                <td>High</td>
                                                <td>NOV 7, 2020</td>
                                                <td> to 45 [iU]/mL</td>
                                                <td>Normal</td>
                                             </tr>
                                          </tbody>
                                       </table>
                                    </li>
                                 </ul>
                              </td>
                           </tr>
                        </tbody>
                     </table>
                     <table>
                        <thead>
                           <tr>
                              <th>Results Panel</th>
                              <th>Date(s)</th>
                           </tr>
                        </thead>
                        <tbody>
                           <tr>
                              <td>Bordetella pertussis [Presence]
										<br/>in Throat by Organism specific culture
									</td>
                              <td>NOV 7, 2020 to NOV 7, 2020</td>
                           </tr>
                           <tr>
                              <td>
                                 <ul>
                                    <li>
                                       <table>
                                          <thead>
                                             <tr>
                                                <th>Initial Case Report Trigger Code Result Observation </th>
                                                <th>Trigger Code</th>
                                                <th>Trigger Code codeSystem</th>
                                                <th>RCTC OID</th>
                                                <th>RCTC Version</th>
                                                <th>Outcome</th>
                                                <th>Trigger Code</th>
                                                <th>Trigger Code codeSystem</th>
                                                <th>RCTC OID</th>
                                                <th>RCTC Version</th>
                                                <th>Interpretation</th>
                                                <th>Date(s)</th>
                                             </tr>
                                          </thead>
                                          <tbody>
                                             <tr>
                                                <td>Bordetella pertussis [Presence]
																<br/>in Throat by Organism specific culture
															</td>
                                                <td>548-8</td>
                                                <td>LOINC</td>
                                                <td>2.16.840.1.114222.4.11.7508</td>
                                                <td>19/05/2020</td>
                                                <td>Bordetella pertussis (organism)</td>
                                                <td>5247005</td>
                                                <td>SNOMED CT</td>
                                                <td>2.16.840.1.114222.4.11.7508</td>
                                                <td>19/05/2020</td>
                                                <td>Abnormal</td>
                                                <td>NOV 7, 2020</td>
                                             </tr>
                                          </tbody>
                                       </table>
                                    </li>
                                 </ul>
                              </td>
                           </tr>
                        </tbody>
                     </table>
                  </div>
               </text>
               <!--2.16.840.1.113883.10.20.22.4.1-->
               <!--2.16.840.1.113883.10.20.22.4.1:2015-08-01-->
               <!--2.16.840.1.113883.10.20.15.2.3.35:2022-05-01-->
               <entry><!--eICR Trigger Code Flag Extension-->
                  <extension url="http://hl7.org/fhir/us/ecr/StructureDefinition/eicr-trigger-code-flag-extension">
                     <extension url="triggerCodeValueSet">
                        <valueOid value="urn:oid:2.16.840.1.114222.4.11.7508"/>
                     </extension>
                     <extension url="triggerCodeValueSetVersion">
                        <valueString value="2020-11-13"/>
                     </extension>
                     <extension url="triggerCode">
                        <valueCoding>
                           <system value="http://loinc.org"/>
                           <code value="57021-8"/>
                           <display value="CBC W Auto Differential panel - Blood"/>
                        </valueCoding>
                     </extension>
                  </extension>
                  <reference value="urn:uuid:6b20b626-a12b-11ef-d133-09173f13e4c5"/>
               </entry>
               <!--2.16.840.1.113883.10.20.22.4.1-->
               <!--2.16.840.1.113883.10.20.22.4.1:2015-08-01-->
               <entry><!--eICR Trigger Code Flag Extension-->
                  <extension url="http://hl7.org/fhir/us/ecr/StructureDefinition/eicr-trigger-code-flag-extension">
                     <extension url="triggerCodeValueSet">
                        <valueOid value="urn:oid:2.16.840.1.114222.4.11.7508"/>
                     </extension>
                     <extension url="triggerCodeValueSetVersion">
                        <valueString value="2020-11-13"/>
                     </extension>
                     <extension url="triggerCode">
                        <valueCoding>
                           <system value="http://loinc.org"/>
                           <code value="94510-5"/>
                           <display value="SARS-CoV-2 (COVID-19) N gene [Cycle Threshold #] in Specimen by NAA with probe detection"/>
                        </valueCoding>
                     </extension>
                  </extension>
                  <reference value="urn:uuid:6b20b677-a12b-11ef-d133-09173f13e4c5"/>
               </entry>
            </section>
            <section>
               <title value="Procedures"/>
               <code>
                  <coding>
                     <system value="http://loinc.org"/>
                     <code value="47519-4"/>
                     <display value="History of Procedures Document"/>
                  </coding>
               </code>
               <text>
                  <status value="additional"/>
                  <div xmlns="http://www.w3.org/1999/xhtml">
                     <table border="1" width="100%">
                        <thead>
                           <tr>
                              <th>Procedure</th>
                              <th>Date</th>
                           </tr>
                        </thead>
                        <tbody>
                           <tr>
                              <td>Colonic polypectomy</td>
                              <td>November 15, 2020</td>
                           </tr>
                        </tbody>
                     </table>
                  </div>
               </text>
               <!--2.16.840.1.113883.10.20.22.4.14:2014-06-09-->
               <!--2.16.840.1.113883.10.20.22.4.14-->
               <entry>
                  <reference value="urn:uuid:6b20b6bc-a12b-11ef-d133-09173f13e4c5"/>
               </entry>
               <!--2.16.840.1.113883.10.20.22.4.13:2014-06-09-->
               <!--2.16.840.1.113883.10.20.22.4.13-->
               <entry>
                  <reference value="urn:uuid:6b20b6c5-a12b-11ef-d133-09173f13e4c5"/>
               </entry>
               <!--2.16.840.1.113883.10.20.22.4.14:2014-06-09-->
               <!--2.16.840.1.113883.10.20.15.2.3.44:2021-01-01-->
               <entry><!--eICR Trigger Code Flag Extension-->
                  <extension url="http://hl7.org/fhir/us/ecr/StructureDefinition/eicr-trigger-code-flag-extension">
                     <extension url="triggerCodeValueSet">
                        <valueOid value="urn:oid:2.16.840.1.114222.4.11.7508"/>
                     </extension>
                     <extension url="triggerCodeValueSetVersion">
                        <valueString value="2020-11-13"/>
                     </extension>
                     <extension url="triggerCode">
                        <valueCoding>
                           <system value="http://snomed.info/sct"/>
                           <code value="233573008"/>
                           <display value="Extracorporeal membrane oxygenation (procedure)"/>
                        </valueCoding>
                     </extension>
                  </extension>
                  <reference value="urn:uuid:6b20b6d3-a12b-11ef-d133-09173f13e4c5"/>
               </entry>
               <!--2.16.840.1.113883.10.20.22.4.12:2014-06-09-->
               <!--2.16.840.1.113883.10.20.15.2.3.45:2021-01-01-->
               <entry><!--eICR Trigger Code Flag Extension-->
                  <extension url="http://hl7.org/fhir/us/ecr/StructureDefinition/eicr-trigger-code-flag-extension">
                     <extension url="triggerCodeValueSet">
                        <valueOid value="urn:oid:2.16.840.1.114222.4.11.7508"/>
                     </extension>
                     <extension url="triggerCodeValueSetVersion">
                        <valueString value="2020-11-13"/>
                     </extension>
                     <extension url="triggerCode">
                        <valueCoding>
                           <system value="http://snomed.info/sct"/>
                           <code value="409524006"/>
                           <display value="Airborne precautions (procedure)"/>
                        </valueCoding>
                     </extension>
                  </extension>
                  <reference value="urn:uuid:6b20b6df-a12b-11ef-d133-09173f13e4c5"/>
               </entry>
               <!--2.16.840.1.113883.10.20.22.4.13:2014-06-09-->
               <!--2.16.840.1.113883.10.20.15.2.3.46:2021-01-01-->
               <entry><!--eICR Trigger Code Flag Extension-->
                  <extension url="http://hl7.org/fhir/us/ecr/StructureDefinition/eicr-trigger-code-flag-extension">
                     <extension url="triggerCodeValueSet">
                        <valueOid value="urn:oid:2.16.840.1.114222.4.11.7508"/>
                     </extension>
                     <extension url="triggerCodeValueSetVersion">
                        <valueString value="2020-11-13"/>
                     </extension>
                     <extension url="triggerCode">
                        <valueCoding>
                           <system value="http://snomed.info/sct"/>
                           <code value="385857005"/>
                           <display value="Ventilator care and adjustment (regime/therapy)"/>
                        </valueCoding>
                     </extension>
                  </extension>
                  <reference value="urn:uuid:6b20b6eb-a12b-11ef-d133-09173f13e4c5"/>
               </entry>
            </section>
            <section>
               <title value="Immunizations"/>
               <code>
                  <coding>
                     <system value="http://loinc.org"/>
                     <code value="11369-6"/>
                     <display value="History of Immunization Narrative"/>
                  </coding>
               </code>
               <text>
                  <status value="additional"/>
                  <div xmlns="http://www.w3.org/1999/xhtml">
                     <table>
                        <thead>
                           <tr>
                              <th>Immunization</th>
                              <th>Immunization Date</th>
                           </tr>
                        </thead>
                        <tbody>
                           <tr>
                              <td>diphtheria, tetanus toxoids and acellular
										<br/>pertussis vaccine, 5 pertussis antigens
									</td>
                              <td>NOV 11, 2020</td>
                           </tr>
                        </tbody>
                     </table>
                     <table>
                        <thead>
                           <tr>
                              <th>Initial Case Report Trigger Code
										<br/>Immunization Medication Activity
									</th>
                              <th>Immunization Date</th>
                              <th>Trigger
										<br/>Code
									</th>
                              <th>Trigger Code
										<br/>codeSystem
									</th>
                              <th>RCTC OID</th>
                              <th>RCTC
										<br/>Version
									</th>
                           </tr>
                        </thead>
                        <tbody>
                           <tr>
                              <td>influenza virus vaccine, unspecified formulation</td>
                              <td>NOV 11, 2020</td>
                              <td>88</td>
                              <td>CVX</td>
                              <td>2.16.840.1.114222.4.11.7508</td>
                              <td>19/05/2020</td>
                           </tr>
                        </tbody>
                     </table>
                     <table>
                        <thead>
                           <tr>
                              <th>Vaccinne Credential Patient Assertion</th>
                              <th>Assertion Date</th>
                           </tr>
                        </thead>
                        <tbody>
                           <tr>
                              <td>Yes</td>
                              <td>NOV 11, 2020</td>
                           </tr>
                        </tbody>
                     </table>
                  </div>
               </text>
               <!--2.16.840.1.113883.10.20.22.4.52:2015-08-01-->
               <entry>
                  <reference value="urn:uuid:6b20b731-a12b-11ef-d133-09173f13e4c5"/>
               </entry>
               <!--2.16.840.1.113883.10.20.22.4.52:2015-08-01-->
               <entry><!--eICR Trigger Code Flag Extension-->
                  <extension url="http://hl7.org/fhir/us/ecr/StructureDefinition/eicr-trigger-code-flag-extension">
                     <extension url="triggerCodeValueSet">
                        <valueOid value="urn:oid:2.16.840.1.114222.4.11.7508"/>
                     </extension>
                     <extension url="triggerCodeValueSetVersion">
                        <valueString value="2020-11-13"/>
                     </extension>
                     <extension url="triggerCode">
                        <valueCoding>
                           <system value="urn:oid:2.16.840.1.113883.12.292"/>
                           <code value="24"/>
                           <display value="anthrax vaccine"/>
                        </valueCoding>
                     </extension>
                  </extension>
                  <reference value="urn:uuid:6b20b742-a12b-11ef-d133-09173f13e4c5"/>
               </entry>
               <!--2.16.840.1.113883.10.20.15.2.3.55:2021-01-01-->
               <entry>
                  <reference value="urn:uuid:6b20b755-a12b-11ef-d133-09173f13e4c5"/>
               </entry>
            </section>
            <section>
               <title value="Social History"/>
               <code>
                  <coding>
                     <system value="http://loinc.org"/>
                     <code value="29762-2"/>
                     <display value="Social history Narrative"/>
                  </coding>
               </code>
               <text>
                  <status value="additional"/>
                  <div xmlns="http://www.w3.org/1999/xhtml">
                     <table>
                        <thead>
                           <tr>
                              <th>Birth Sex</th>
                              <th>Value</th>
                              <th>Date</th>
                           </tr>
                        </thead>
                        <tbody>
                           <tr>
                              <td>Sex Assigned At Birth</td>
                              <td>Female</td>
                              <td>NOV 24, 1974</td>
                           </tr>
                        </tbody>
                     </table>
                     <table>
                        <thead>
                           <tr>
                              <th>Gender identity</th>
                              <th>Date</th>
                           </tr>
                        </thead>
                        <tbody>
                           <tr>
                              <td>Female-to-male transsexual (finding)</td>
                              <td>JAN 1, 2020</td>
                           </tr>
                        </tbody>
                     </table>
                     <table>
                        <thead>
                           <tr>
                              <th>Characteristics of Home Environment</th>
                              <th>Date</th>
                           </tr>
                        </thead>
                        <tbody>
                           <tr>
                              <td>Homeless</td>
                              <td>NOV 9, 2020</td>
                           </tr>
                        </tbody>
                     </table>
                     <table>
                        <thead>
                           <tr>
                              <th>Exposure/Contact Information</th>
                              <th>Date</th>
                              <th>Location</th>
                              <th>Address</th>
                           </tr>
                        </thead>
                        <tbody>
                           <tr>
                              <td>Mass Gathering: Football game</td>
                              <td>November 11, 2020</td>
                              <td>City Football Stadium</td>
                              <td>99 Football Stadium Road, My City, AZ, 8562</td>
                           </tr>
                        </tbody>
                     </table>
                     <table>
                        <thead>
                           <tr>
                              <th>Current Occupation</th>
                              <th>Current Industry</th>
                              <th>Current Job Title</th>
                              <th>Current Employer Name</th>
                              <th>Current Employer Address</th>
                              <th>Current Employer Telcom</th>
                              <th>Occupational Exposure</th>
                           </tr>
                        </thead>
                        <tbody>
                           <tr>
                              <td>Nursing, psychiatric, and home health aides</td>
                              <td>Accounting, tax preparation, bookkeeping, and payroll services</td>
                              <td>Nurse</td>
                              <td>University Hospital</td>
                              <td>Peachtree Street, Atlanta, Georgia</td>
                              <td>555-1212</td>
                              <td>Nursing care facilities</td>
                              <td>Asbestos</td>
                           </tr>
                        </tbody>
                     </table>
                     <table>
                        <thead>
                           <tr>
                              <th>Usual Occupation</th>
                              <th>Usual Industry</th>
                           </tr>
                        </thead>
                        <tbody>
                           <tr>
                              <td>Nursing, psychiatric, and home health aides</td>
                              <td>Nursing care facilities</td>
                           </tr>
                        </tbody>
                     </table>
                     <table>
                        <thead>
                           <tr>
                              <th>Travel History: Date(s)</th>
                              <th>Notes</th>
                              <th>Location</th>
                           </tr>
                        </thead>
                        <tbody>
                           <tr>
                              <td>1999 to 2007</td>
                              <td>Spent 8 years in the UK during the BSE outbreak</td>
                              <td/>
                           </tr>
                           <tr>
                              <td>In the 3 weeks before NOV 9, 2020</td>
                              <td/>
                              <td>
                                 <ul>
                                    <li>Brazil</li>
                                 </ul>
                              </td>
                           </tr>
                           <tr>
                              <td>APR 25, 2020 to APR 30, 2020</td>
                              <td/>
                              <td>
                                 <ul>
                                    <li>Nadi, FJ</li>
                                 </ul>
                              </td>
                           </tr>
                           <tr>
                              <td>MAY 6, 2020 to MAY 15, 2020</td>
                              <td/>
                              <td>
                                 <ul>
                                    <li>Montreal, QC, CA</li>
                                 </ul>
                              </td>
                           </tr>
                           <tr>
                              <td>JUL 13, 2020 to JUL 15, 2020</td>
                              <td/>
                              <td>
                                 <ul>
                                    <li>Sydney, NSW, AU</li>
                                 </ul>
                              </td>
                           </tr>
                           <tr>
                              <td>OCT 22, 2020 to OCT 30, 2020</td>
                              <td/>
                              <td>
                                 <ul>
                                    <li>1170 N Rancho Robles Rd Oracle, AZ8562, US</li>
                                 </ul>
                              </td>
                           </tr>
                        </tbody>
                     </table>
                     <table>
                        <thead>
                           <tr>
                              <th>Country of Residence</th>
                           </tr>
                        </thead>
                        <tbody>
                           <tr>
                              <td>United Kingdom of Great Britain and Northern Ireland</td>
                           </tr>
                        </tbody>
                     </table>
                     <table>
                        <thead>
                           <tr>
                              <th>Country of Nationality</th>
                           </tr>
                        </thead>
                        <tbody>
                           <tr>
                              <td>Australia</td>
                           </tr>
                        </tbody>
                     </table>
                  </div>
               </text>
               <!--2.16.840.1.113883.10.20.22.4.109-->
               <entry>
                  <reference value="urn:uuid:6b20b7ff-a12b-11ef-d133-09173f13e4c5"/>
               </entry>
               <!--2.16.840.1.113883.10.20.15.2.3.52:2021-01-01-->
               <entry>
                  <reference value="urn:uuid:6b20b809-a12b-11ef-d133-09173f13e4c5"/>
               </entry>
               <!--2.16.840.1.113883.10.20.15.2.3.52:2021-01-01-->
               <entry>
                  <reference value="urn:uuid:6b20b821-a12b-11ef-d133-09173f13e4c5"/>
               </entry>
               <!--2.16.840.1.113883.10.20.15.2.3.52:2021-01-01-->
               <entry>
                  <reference value="urn:uuid:6b20b833-a12b-11ef-d133-09173f13e4c5"/>
               </entry>
               <!--2.16.840.1.113883.10.20.15.2.3.1:2022-05-01-->
               <entry>
                  <reference value="urn:uuid:6b20b84c-a12b-11ef-d133-09173f13e4c5"/>
               </entry>
               <!--2.16.840.1.113883.10.20.15.2.3.1:2022-05-01-->
               <entry>
                  <reference value="urn:uuid:6b20b859-a12b-11ef-d133-09173f13e4c5"/>
               </entry>
               <!--2.16.840.1.113883.10.20.15.2.3.1:2022-05-01-->
               <entry>
                  <reference value="urn:uuid:6b20b869-a12b-11ef-d133-09173f13e4c5"/>
               </entry>
               <!--2.16.840.1.113883.10.20.15.2.3.1:2022-05-01-->
               <entry>
                  <reference value="urn:uuid:6b20b8a8-a12b-11ef-d133-09173f13e4c5"/>
               </entry>
               <!--2.16.840.1.113883.10.20.15.2.3.1:2021-01-01-->
               <entry>
                  <reference value="urn:uuid:6b20b8ba-a12b-11ef-d133-09173f13e4c5"/>
               </entry>
               <!--2.16.840.1.113883.10.20.15.2.3.1:2021-01-01-->
               <entry>
                  <reference value="urn:uuid:6b20b8cb-a12b-11ef-d133-09173f13e4c5"/>
               </entry>
               <!--2.16.840.1.113883.10.20.15.2.3.53:2021-01-01-->
               <entry>
                  <reference value="urn:uuid:6b20b8dd-a12b-11ef-d133-09173f13e4c5"/>
               </entry>
               <!--2.16.840.1.113883.10.20.15.2.3.54:2021-01-01-->
               <entry>
                  <reference value="urn:uuid:6b20b8e6-a12b-11ef-d133-09173f13e4c5"/>
               </entry>
               <!--2.16.840.1.113883.10.20.15.2.3.47:2021-01-01-->
               <entry>
                  <reference value="urn:uuid:6b20b8ee-a12b-11ef-d133-09173f13e4c5"/>
               </entry>
               <!--2.16.840.1.113883.10.20.22.4.221:2020-09-01-->
               <entry>
                  <reference value="urn:uuid:6b20b904-a12b-11ef-d133-09173f13e4c5"/>
               </entry>
               <!--2.16.840.1.113883.10.20.22.4.217:2020-09-01-->
               <entry>
                  <reference value="urn:uuid:6b20b91e-a12b-11ef-d133-09173f13e4c5"/>
               </entry>
               <!--2.16.840.1.113883.10.20.22.4.212:2017-11-30-->
               <entry>
                  <reference value="urn:uuid:6b20b952-a12b-11ef-d133-09173f13e4c5"/>
               </entry>
               <!--2.16.840.1.113883.10.20.15.2.3.50:2021-01-01-->
               <entry>
                  <reference value="urn:uuid:6b20b882-a12b-11ef-d133-09173f13e4c5"/>
               </entry>
            </section>
            <section>
               <title value="Pregnancy Section"/>
               <code>
                  <coding>
                     <system value="http://loinc.org"/>
                     <code value="90767-5"/>
                     <display value="Pregnancy summary Document"/>
                  </coding>
               </code>
               <text>
                  <status value="generated"/>
                  <div xmlns="http://www.w3.org/1999/xhtml">
                     <table>
                        <thead>
                           <tr>
                              <th>Pregnancy Status</th>
                              <th>Date(s) over which status holds
										<br/>(if no high date, status was
										<br/>current at time of recording)
									</th>
                              <th>Determination Method</th>
                              <th>Determination Date</th>
                              <th>Recorded Date</th>
                           </tr>
                        </thead>
                        <tbody>
                           <tr>
                              <td>Pregnant</td>
                              <td>AUG 26, 2017</td>
                              <td>Diagnostic ultrasonography</td>
                              <td>OCT 1, 2017</td>
                              <td>OCT 1, 2017 10:35</td>
                           </tr>
                           <tr>
                              <td>
                                 <ul>
                                    <li>
                                       <table>
                                          <thead>
                                             <tr>
                                                <th>Estimated Date of Delivery</th>
                                                <th>EDD</th>
                                                <th>EDD Determination Date</th>
                                             </tr>
                                          </thead>
                                          <tbody>
                                             <tr>
                                                <td>Delivery date estimated from ovulation date</td>
                                                <td>MAY 22, 2017</td>
                                                <td>OCT 1, 2017 10:15</td>
                                             </tr>
                                          </tbody>
                                       </table>
                                       <table>
                                          <thead>
                                             <tr>
                                                <th>Estimated Gestational Age of Pregnancy</th>
                                                <th>Days</th>
                                                <th>Determination Date</th>
                                             </tr>
                                          </thead>
                                          <tbody>
                                             <tr>
                                                <td>Gestational age Estimated from selected delivery date</td>
                                                <td>143 d</td>
                                                <td>OCT 1, 2017 10:15</td>
                                             </tr>
                                             <tr>
                                                <td>
                                                   <ul>
                                                      <li>
                                                         <table>
                                                            <thead>
                                                               <tr>
                                                                  <th>Reference to selected delivery date</th>
                                                               </tr>
                                                            </thead>
                                                            <tbody>
                                                               <tr>
                                                                  <td/>
                                                               </tr>
                                                            </tbody>
                                                         </table>
                                                      </li>
                                                   </ul>
                                                </td>
                                             </tr>
                                          </tbody>
                                       </table>
                                       <table>
                                          <thead>
                                             <tr>
                                                <th>Pregnancy Outcome</th>
                                                <th>Birth Order</th>
                                                <th>Time</th>
                                                <th>Method of Delivery</th>
                                             </tr>
                                          </thead>
                                          <tbody>
                                             <tr>
                                                <td>Stillbirth (finding)</td>
                                                <td>1</td>
                                                <td>JAN 5, 2020 08:50</td>
                                                <td>Breech delivery (procedure)</td>
                                             </tr>
                                             <tr>
                                                <td>Term birth of newborn (finding)</td>
                                                <td>2</td>
                                                <td>JAN 5, 2020 10:05</td>
                                                <td>Breech delivery (procedure)</td>
                                             </tr>
                                          </tbody>
                                       </table>
                                    </li>
                                 </ul>
                              </td>
                           </tr>
                        </tbody>
                     </table>
                     <table>
                        <thead>
                           <tr>
                              <th>Last menstrual period start date</th>
                              <th>Observation Date</th>
                           </tr>
                        </thead>
                        <tbody>
                           <tr>
                              <td>AUG 1, 2017</td>
                              <td>JAN 5, 2020 10:15</td>
                           </tr>
                        </tbody>
                     </table>
                     <table>
                        <thead>
                           <tr>
                              <th>Postpartum Status</th>
                              <th>Observation date</th>
                           </tr>
                        </thead>
                        <tbody>
                           <tr>
                              <td>Mid postpartum state (finding)</td>
                              <td>JAN 5, 2020 10:15</td>
                           </tr>
                        </tbody>
                     </table>
                  </div>
               </text>
               <!--2.16.840.1.113883.10.20.15.3.8-->
               <!--2.16.840.1.113883.10.20.22.4.293:2020-04-01-->
               <entry>
                  <reference value="urn:uuid:6b20b9c5-a12b-11ef-d133-09173f13e4c5"/>
               </entry>
               <!--2.16.840.1.113883.10.20.30.3.34:2014-06-09-->
               <entry>
                  <reference value="urn:uuid:6b20ba13-a12b-11ef-d133-09173f13e4c5"/>
               </entry>
               <!--2.16.840.1.113883.10.20.22.4.285:2020-04-01-->
               <entry>
                  <reference value="urn:uuid:6b20ba1e-a12b-11ef-d133-09173f13e4c5"/>
               </entry>
               <!--2.16.840.1.113883.10.20.22.4.284:2020-04-01-->
               <entry>
                  <reference value="urn:uuid:6b20ba07-a12b-11ef-d133-09173f13e4c5"/>
               </entry>
               <!--2.16.840.1.113883.10.20.22.4.284:2020-04-01-->
               <entry>
                  <reference value="urn:uuid:6b20ba07-a12b-11ef-d133-09173f13e4c5"/>
               </entry>
            </section>
            <section>
               <title value="Vital Signs (Last Filed)"/>
               <code>
                  <coding>
                     <system value="http://loinc.org"/>
                     <code value="8716-3"/>
                     <display value="Vital Signs"/>
                  </coding>
               </code>
               <text>
                  <status value="generated"/>
                  <div xmlns="http://www.w3.org/1999/xhtml">
                     <table>
                        <thead>
                           <tr>
                              <th>Date</th>
                              <th>Blood Pressure</th>
                              <th>Pulse</th>
                              <th>Temperature</th>
                              <th>Respiratory Rate</th>
                              <th>Height</th>
                              <th>Weight</th>
                              <th>BMI</th>
                              <th>SpO2</th>
                           </tr>
                        </thead>
                        <tbody>
                           <tr>
                              <td>05/20/2014 7:36pm</td>
                              <td>
                                 <span>120</span>/
										<span>80</span>mm[Hg] 
									</td>
                              <td>80 /min</td>
                              <td>99.0 F</td>
                              <td>18 /min</td>
                              <td>5'7 (67 inches)</td>
                              <td>239.9 lbs</td>
                              <td>37.58 kg/m2</td>
                              <td>98%</td>
                           </tr>
                        </tbody>
                     </table>
                  </div>
               </text>
               <!--2.16.840.1.113883.10.20.22.4.26-->
               <!--2.16.840.1.113883.10.20.22.4.26:2015-08-01-->
               <entry>
                  <reference value="urn:uuid:6b20ba56-a12b-11ef-d133-09173f13e4c5"/>
               </entry>
            </section>
            <section>
               <title value="Emergency Outbreak Information Section"/>
               <code>
                  <coding>
                     <system value="http://loinc.org"/>
                     <code value="83910-0"/>
                     <display value="Public health Note"/>
                  </coding>
               </code>
               <text>
                  <status value="generated"/>
                  <div xmlns="http://www.w3.org/1999/xhtml">
                     <table>
                        <thead>
                           <tr>
                              <th>Information Type</th>
                              <th>Information Date</th>
                              <th>Result</th>
                           </tr>
                        </thead>
                        <tbody>
                           <tr>
                              <td>Employee desk distance from mail sorter</td>
                              <td>1 November 2020</td>
                              <td>2 meters</td>
                           </tr>
                        </tbody>
                     </table>
                  </div>
               </text>
               <!--2.16.840.1.113883.10.20.15.2.3.40:2021-01-01-->
               <entry>
                  <reference value="urn:uuid:6b20bade-a12b-11ef-d133-09173f13e4c5"/>
               </entry>
               <!--2.16.840.1.113883.10.20.15.2.3.40:2021-01-01-->
               <entry>
                  <reference value="urn:uuid:6b20baf3-a12b-11ef-d133-09173f13e4c5"/>
               </entry>
               <!--2.16.840.1.113883.10.20.15.2.3.40:2021-01-01-->
               <entry>
                  <reference value="urn:uuid:6b20bae8-a12b-11ef-d133-09173f13e4c5"/>
               </entry>
               <!--2.16.840.1.113883.10.20.15.2.3.40:2021-01-01-->
               <entry>
                  <reference value="urn:uuid:6b20bafd-a12b-11ef-d133-09173f13e4c5"/>
               </entry>
            </section>
            <section>
               <title value="Reportability Response Information Section"/>
               <code>
                  <coding>
                     <system value="http://loinc.org"/>
                     <code value="88085-6"/>
                     <display value="Reportability response report Document Public health"/>
                  </coding>
               </code>
               <text>
                  <status value="generated"/>
                  <div xmlns="http://www.w3.org/1999/xhtml">
                     <table>
                        <thead>
                           <tr>
                              <th>TODO</th>
                           </tr>
                        </thead>
                        <tbody>
                           <tr>
                              <td>TODO</td>
                           </tr>
                        </tbody>
                     </table>
                  </div>
               </text>
               <!--2.16.840.1.113883.10.20.15.2.3.12:2017-04-01-->
               <entry>
                  <reference value="urn:uuid:6b20bb20-a12b-11ef-d133-09173f13e4c5"/>
               </entry>
               <!--2.16.840.1.113883.10.20.15.2.3.13:2017-04-01-->
               <entry>
                  <reference value="urn:uuid:6b20bb2a-a12b-11ef-d133-09173f13e4c5"/>
               </entry>
               <!--2.16.840.1.113883.10.20.15.2.3.26:2017-04-01-->
               <entry>
                  <reference value="urn:uuid:6b20bb7a-a12b-11ef-d133-09173f13e4c5"/>
               </entry>
               <!--2.16.840.1.113883.10.20.15.2.3.27:2017-04-01-->
               <entry>
                  <reference value="urn:uuid:6b20bb83-a12b-11ef-d133-09173f13e4c5"/>
               </entry>
            </section>
         </Composition>
      </resource>
   </entry>
   <entry>
      <fullUrl value="urn:uuid:6b0c9adc-a12b-11ef-d133-09173f13e4c5"/>
      <resource>
         <Patient>
            <meta>
               <profile value="http://hl7.org/fhir/us/ecr/StructureDefinition/us-ph-patient"/>
            </meta>
            <text>
               <status value="generated"/>
               <div xmlns="http://www.w3.org/1999/xhtml">
                  <h1>Everywoman, Eve H</h1>
                  <p>Alternate name: Everywoman, Ruth L</p>
                  <p>Telecom: tel:+1-555-555-2003</p>
                  <p>Telecom: tel:+1-555-555-2004</p>
                  <p>Address: 2222 Home Street<br/>COOK<br/>SOUTH HOLLAND<br/>IL<br/>60473<br/>USA<br/>
                  </p>
                  <p>Gender: F</p>
                  <p>Birthdate: 1974-11-24</p>
                  <p>Language: en</p>
               </div>
            </text>
            <extension url="http://hl7.org/fhir/us/core/StructureDefinition/us-core-race">
               <extension url="ombCategory">
                  <valueCoding>
                     <system value="urn:oid:2.16.840.1.113883.6.238"/>
                     <code value="2106-3"/>
                     <display value="White"/>
                  </valueCoding>
               </extension>
               <extension url="text">
                  <valueString value="White"/>
               </extension>
            </extension>
            <extension url="http://hl7.org/fhir/us/core/StructureDefinition/us-core-ethnicity">
               <extension url="ombCategory">
                  <valueCoding>
                     <system value="urn:oid:2.16.840.1.113883.6.238"/>
                     <code value="@code"/>
                     <display value="Not Hispanic or Latino"/>
                  </valueCoding>
               </extension>
               <extension url="text">
                  <valueString value="Not Hispanic or Latino"/>
               </extension>
            </extension>
            <extension url="http://hl7.org/fhir/us/core/StructureDefinition/us-core-birthsex">
               <valueCode value="F"/>
            </extension>
            <extension url="http://hl7.org/fhir/us/ecr/StructureDefinition/us-ph-genderidentity-extension">
               <extension url="value">
                  <valueCodeableConcept>
                     <coding>
                        <system value="http://snomed.info/sct"/>
                        <code value="407377005"/>
                        <display value="Female-to-male transsexual (finding)"/>
                     </coding>
                  </valueCodeableConcept>
               </extension>
               <extension url="period">
                  <valuePeriod>
                     <start value="2020-01-01"/>
                  </valuePeriod>
               </extension>
            </extension>
            <!--US Public Health Tribal Affiliation Extension-->
            <extension url="http://hl7.org/fhir/us/ecr/StructureDefinition/us-ph-tribal-affiliation-extension">
               <extension url="TribeName">
                  <valueCoding>
                     <system value="http://terminology.hl7.org/CodeSystem/v3-TribalEntityUS"/>
                     <code value="91"/>
                     <display value="Fort Mojave Indian Tribe of Arizona, California &amp; Nevada"/>
                  </valueCoding>
               </extension>
               <extension url="EnrolledTribeMember">
                  <valueBoolean value="true"/>
               </extension>
            </extension>
            <identifier>
               <system value="urn:oid:2.16.840.1.113883.19.5"/>
               <value value="123453"/>
            </identifier>
            <identifier>
               <system value="http://hl7.org/fhir/sid/us-ssn"/>
               <value value="444-22-2222"/>
            </identifier>
            <name>
               <use value="usual"/>
               <family value="Everywoman"/>
               <given value="Eve"/>
               <given value="H"/>
            </name>
            <name>
               <family value="Everywoman"/>
               <given value="Ruth"/>
               <given value="L"/>
            </name>
            <telecom>
               <system value="phone"/>
               <value value="+1-555-555-2003"/>
               <use value="home"/>
            </telecom>
            <telecom>
               <system value="phone"/>
               <value value="+1-555-555-2004"/>
               <use value="work"/>
            </telecom>
            <gender value="female"/>
            <birthDate value="1974-11-24"/>
            <deceasedBoolean value="false"/>
            <address>
               <use value="home"/>
               <line value="2222 Home Street"/>
               <city value="SOUTH HOLLAND"/>
               <district value="COOK"/>
               <state value="IL"/>
               <postalCode value="60473"/>
               <country value="USA"/>
               <period>
                  <start value="2023-05-09"/>
               </period>
            </address>
            <contact>
               <relationship>
                  <coding>
                     <system value="http://terminology.hl7.org/CodeSystem/v3-RoleClass"/>
                     <code value="GUARD"/>
                  </coding>
               </relationship>
               <name>
                  <use value="usual"/>
                  <family value="Mum"/>
                  <given value="Martha"/>
                  <given value="L"/>
               </name>
               <telecom>
                  <system value="phone"/>
                  <value value="+1-555-555-2006"/>
                  <use value="home"/>
               </telecom>
               <telecom>
                  <system value="email"/>
                  <value value="mail@guardian.com"/>
               </telecom>
               <address>
                  <use value="home"/>
                  <line value="4444 Home Street"/>
                  <city value="Chicago"/>
                  <state value="IL"/>
                  <postalCode value="60638"/>
                  <country value="US"/>
               </address>
            </contact>
            <communication>
               <language>
                  <coding>
                     <system value="urn:ietf:bcp:47"/>
                     <code value="en"/>
                  </coding>
               </language>
               <preferred value="true"/>
            </communication>
         </Patient>
      </resource>
   </entry>
   <entry>
      <fullUrl value="urn:uuid:6b0e6ee3-a12b-11ef-d133-09173f13e4c5"/>
      <resource>
         <Encounter>
            <meta>
               <profile value="http://hl7.org/fhir/us/ecr/StructureDefinition/eicr-encounter"/>
               <!--CDA participant: ClinicalDocument[templateId/@root='2.16.840.1.113883.10.20.15.2'][templateId/@extension='2022-05-01']/componentOf/encompassingEncounter-->
            </meta>
            <text>
               <status value="generated"/>
               <div xmlns="http://www.w3.org/1999/xhtml">
                  <table>
                     <thead>
                        <tr>
                           <th>Encounter</th>
                           <th>Date(s)</th>
                           <th>Location</th>
                        </tr>
                     </thead>
                     <tbody>
                        <tr>
                           <td>Office outpatient visit 15 minutes</td>
                           <td>NOV 7, 2020</td>
                           <td>
                              <ul>
                                 <li>
                                    <span class="Italics">Urgent Care Center</span>
                                 </li>
                              </ul>
                           </td>
                        </tr>
                        <tr>
                           <td>
                              <ul>
                                 <li>
                                    <table>
                                       <thead>
                                          <tr>
                                             <th>Encounter Diagnosis Type</th>
                                          </tr>
                                       </thead>
                                       <tbody>
                                          <tr>
                                             <td>Diagnosis</td>
                                          </tr>
                                          <tr>
                                             <td>
                                                <ul>
                                                   <li>
                                                      <table>
                                                         <thead>
                                                            <tr>
                                                               <th>Initial Case Report Trigger
																						<br/>Code Problem Observation 
																					</th>
                                                               <th>Problem</th>
                                                               <th>Trigger Code</th>
                                                               <th>Trigger Code codeSystem</th>
                                                               <th>RCTC OID</th>
                                                               <th>RCTC Version</th>
                                                               <th>Date(s)</th>
                                                            </tr>
                                                         </thead>
                                                         <tbody>
                                                            <tr>
                                                               <td>Diagnosis</td>
                                                               <td>Pertussis (disorder)</td>
                                                               <td>27836007</td>
                                                               <td>SNOMED CT</td>
                                                               <td>2.16.840.1.114222.4.11.7508</td>
                                                               <td>19/05/2020</td>
                                                               <td>NOV 7, 2020</td>
                                                            </tr>
                                                         </tbody>
                                                      </table>
                                                      <table>
                                                         <thead>
                                                            <tr>
                                                               <th>Encounter Diagnosis Type</th>
                                                            </tr>
                                                         </thead>
                                                         <tbody>
                                                            <tr>
                                                               <td>Diagnosis</td>
                                                            </tr>
                                                            <tr>
                                                               <td>
                                                                  <ul>
                                                                     <li>
                                                                        <table>
                                                                           <thead>
                                                                              <tr>
                                                                                 <th>Problem Type</th>
                                                                                 <th>Problem</th>
                                                                                 <th>Date(s)</th>
                                                                              </tr>
                                                                           </thead>
                                                                           <tbody>
                                                                              <tr>
                                                                                 <td>Diagnosis</td>
                                                                                 <td>A non-trigger code diagnosis (disorder)</td>
                                                                                 <td>NOV 7, 2020</td>
                                                                              </tr>
                                                                           </tbody>
                                                                        </table>
                                                                     </li>
                                                                  </ul>
                                                               </td>
                                                            </tr>
                                                         </tbody>
                                                      </table>
                                                   </li>
                                                </ul>
                                             </td>
                                          </tr>
                                       </tbody>
                                    </table>
                                 </li>
                              </ul>
                           </td>
                        </tr>
                     </tbody>
                  </table>
                  <p>...</p>
               </div>
            </text>
            <!--INFO: Id from encompassingEncounter-->
            <identifier>
               <system value="urn:oid:2.16.840.1.113883.19"/>
               <value value="9937012"/>
            </identifier>
            <status value="finished"/>
            <class>
               <system value="http://terminology.hl7.org/CodeSystem/v3-ActCode"/>
               <code value="AMB"/>
            </class>
            <type>
               <coding>
                  <system value="http://terminology.hl7.org/CodeSystem/v3-ActCode"/>
                  <code value="AMB"/>
                  <display value="Ambulatory"/>
               </coding>
            </type>
            <type>
               <coding>
                  <system value="http://www.ama-assn.org/go/cpt"/>
                  <code value="99213"/>
                  <display value="Office or other outpatient visit for the evaluation and management of an established patient, which requires a medically appropriate history and/or examination and low level of medical decision making. When using time for code selection, 20-29 minutes of total time is spent on the date of the encounter."/>
               </coding>
            </type>
            <subject>
               <reference value="urn:uuid:6b0c9adc-a12b-11ef-d133-09173f13e4c5"/>
            </subject>
            <participant>
               <type>
                  <coding>
                     <system value="http://terminology.hl7.org/CodeSystem/v3-ParticipationType"/>
                     <code value="ATND"/>
                  </coding>
               </type>
               <individual>
                  <reference value="urn:uuid:6b0e6ef2-a12b-11ef-d133-09173f13e4c5"/>
               </individual>
            </participant>
            <period>
               <start value="2020-11-07T08:44:21.000-05:00"/>
               <end value="2020-11-08T11:21:03.000-05:00"/>
            </period>
            <diagnosis><!--eICR Trigger Code Flag Extension-->
               <extension url="http://hl7.org/fhir/us/ecr/StructureDefinition/eicr-trigger-code-flag-extension">
                  <extension url="triggerCodeValueSet">
                     <valueOid value="urn:oid:2.16.840.1.114222.4.11.7508"/>
                  </extension>
                  <extension url="triggerCodeValueSetVersion">
                     <valueString value="2020-11-13"/>
                  </extension>
                  <extension url="triggerCode">
                     <valueCoding>
                        <system value="http://snomed.info/sct"/>
                        <code value="27836007"/>
                        <display value="Pertussis (disorder)"/>
                     </valueCoding>
                  </extension>
               </extension>
               <condition><!--2.16.840.1.113883.10.20.22.4.4--><!--2.16.840.1.113883.10.20.22.4.4:2015-08-01--><!--2.16.840.1.113883.10.20.15.2.3.3:2021-01-01-->
                  <reference value="urn:uuid:6b0e6ff9-a12b-11ef-d133-09173f13e4c5"/>
               </condition>
            </diagnosis>
            <diagnosis>
               <condition><!--2.16.840.1.113883.10.20.22.4.4--><!--2.16.840.1.113883.10.20.22.4.4:2015-08-01-->
                  <reference value="urn:uuid:6b0e7011-a12b-11ef-d133-09173f13e4c5"/>
               </condition>
            </diagnosis>
            <location>
               <location>
                  <reference value="urn:uuid:6b0e6f17-a12b-11ef-d133-09173f13e4c5"/>
               </location>
            </location>
            <serviceProvider>
               <reference value="urn:uuid:6b0e6f27-a12b-11ef-d133-09173f13e4c5"/>
            </serviceProvider>
         </Encounter>
      </resource>
   </entry>
   <entry>
      <fullUrl value="urn:uuid:6b0e6ef2-a12b-11ef-d133-09173f13e4c5"/>
      <resource>
         <PractitionerRole>
            <meta>
               <profile value="http://hl7.org/fhir/us/ecr/StructureDefinition/us-ph-practitionerrole"/>
            </meta>
            <!--/ClinicalDocument[cda:id[@root="2.16.840.1.113883.9.9.9.9.9"][@extension="db734647-fc99-424c-a864-7e3cda82e704"]]/componentOf/encompassingEncounter[cda:id[@root="2.16.840.1.113883.19"][@extension="9937012"]]/responsibleParty/assignedEntity[cda:id[@root="2.16.840.1.113883.4.6"][@extension="6666666666666"]]-->
            <identifier>
               <system value="http://hl7.org/fhir/sid/us-npi"/>
               <value value="6666666666666"/>
            </identifier>
            <practitioner>
               <reference value="urn:uuid:6b0e6f02-a12b-11ef-d133-09173f13e4c5"/>
            </practitioner>
            <organization>
               <reference value="urn:uuid:6b0e6f0b-a12b-11ef-d133-09173f13e4c5"/>
            </organization>
            <telecom>
               <system value="phone"/>
               <value value="+1(555)555-1003"/>
               <use value="work"/>
            </telecom>
            <telecom>
               <system value="fax"/>
               <value value="+1(555)555-1234"/>
               <use value="work"/>
            </telecom>
            <telecom>
               <system value="email"/>
               <value value="mail@provider_domain.com"/>
               <use value="work"/>
            </telecom>
         </PractitionerRole>
      </resource>
   </entry>
   <entry>
      <fullUrl value="urn:uuid:6b0e6f02-a12b-11ef-d133-09173f13e4c5"/>
      <resource>
         <Practitioner>
            <meta>
               <profile value="http://hl7.org/fhir/us/core/StructureDefinition/us-core-practitioner"/>
            </meta>
            <identifier>
               <system value="http://hl7.org/fhir/sid/us-npi"/>
               <value value="6666666666666"/>
            </identifier>
            <name>
               <family value="Seven"/>
               <given value="Henry"/>
               <suffix value="M.D."/>
            </name>
            <telecom>
               <system value="phone"/>
               <value value="+1(555)555-1003"/>
               <use value="work"/>
            </telecom>
            <telecom>
               <system value="fax"/>
               <value value="+1(555)555-1234"/>
               <use value="work"/>
            </telecom>
            <telecom>
               <system value="email"/>
               <value value="mail@provider_domain.com"/>
               <use value="work"/>
            </telecom>
            <address>
               <line value="1002 Healthcare Drive"/>
               <city value="CHICAGO"/>
               <state value="IL"/>
               <postalCode value="60612"/>
               <country value="USA"/>
            </address>
         </Practitioner>
      </resource>
   </entry>
   <entry>
      <fullUrl value="urn:uuid:6b0e6f0b-a12b-11ef-d133-09173f13e4c5"/>
      <resource>
         <Organization>
            <meta>
               <profile value="http://hl7.org/fhir/us/ecr/StructureDefinition/us-ph-organization"/>
            </meta>
            <active value="true"/>
            <name value="Community Health and Hospitals"/>
            <telecom>
               <system value="phone"/>
               <value value="+1(555)555-1003"/>
               <use value="work"/>
            </telecom>
            <telecom>
               <system value="fax"/>
               <value value="+1(555)555-1234"/>
               <use value="work"/>
            </telecom>
            <telecom>
               <system value="email"/>
               <value value="mail@provider_domain.com"/>
               <use value="work"/>
            </telecom>
            <address>
               <line value="1002 Healthcare Drive"/>
               <city value="CHICAGO"/>
               <state value="IL"/>
               <postalCode value="60612"/>
               <country value="USA"/>
            </address>
         </Organization>
      </resource>
   </entry>
   <entry>
      <fullUrl value="urn:uuid:6b0e6f17-a12b-11ef-d133-09173f13e4c5"/>
      <resource>
         <Location>
            <meta>
               <profile value="http://hl7.org/fhir/us/ecr/StructureDefinition/us-ph-location"/>
               <!--CDA participant: ClinicalDocument[templateId/@root='2.16.840.1.113883.10.20.15.2'][templateId/@extension='2022-05-01']/componentOf/encompassingEncounter/location-->
            </meta>
            <identifier>
               <system value="http://hl7.org/fhir/sid/us-npi"/>
               <value value="77777777777"/>
            </identifier>
            <name value="Good Health Hospital"/>
            <type>
               <coding>
                  <system value="http://terminology.hl7.org/CodeSystem/v3-RoleCode"/>
                  <code value="OF"/>
                  <display value="Outpatient facility"/>
               </coding>
            </type>
            <telecom>
               <system value="phone"/>
               <value value="1+(555)-555-1212"/>
               <use value="work"/>
            </telecom>
            <telecom>
               <system value="fax"/>
               <value value="1+(555)-555-3333"/>
               <use value="work"/>
            </telecom>
            <address>
               <line value="1002 Healthcare Drive"/>
               <city value="CHICAGO"/>
               <state value="IL"/>
               <postalCode value="60612"/>
               <country value="USA"/>
            </address>
         </Location>
      </resource>
   </entry>
   <entry>
      <fullUrl value="urn:uuid:6b0e6f27-a12b-11ef-d133-09173f13e4c5"/>
      <resource>
         <Organization>
            <meta>
               <profile value="http://hl7.org/fhir/us/ecr/StructureDefinition/us-ph-organization"/>
            </meta>
            <identifier>
               <system value="http://hl7.org/fhir/sid/us-npi"/>
               <value value="77777777777"/>
            </identifier>
            <active value="true"/>
            <name value="Good Health Hospital"/>
            <telecom>
               <system value="phone"/>
               <value value="1+(555)-555-1212"/>
               <use value="work"/>
            </telecom>
            <telecom>
               <system value="fax"/>
               <value value="1+(555)-555-3333"/>
               <use value="work"/>
            </telecom>
            <address>
               <line value="1002 Healthcare Drive"/>
               <city value="CHICAGO"/>
               <state value="IL"/>
               <postalCode value="60612"/>
               <country value="USA"/>
            </address>
         </Organization>
      </resource>
   </entry>
   <!--INFO: cda:assignedAuthoringDevice-->
   <entry>
      <fullUrl value="urn:uuid:6b0e6ec7-a12b-11ef-d133-09173f13e4c5"/>
      <resource>
         <Device>
            <identifier>
               <system value="urn:ietf:rfc:3986"/>
               <value value="urn:oid:2.16.840.1.113883.3.72.5.20"/>
            </identifier>
            <!--INFO: cda:assignedAuthoringDevice-->
            <modelNumber value="Acme"/>
            <version>
               <value value="Acme EHR"/>
            </version>
            <location>
               <reference value="urn:uuid:6b0e6ebc-a12b-11ef-d133-09173f13e4c5"/>
            </location>
         </Device>
      </resource>
   </entry>
   <entry>
      <fullUrl value="urn:uuid:6b0e6ebc-a12b-11ef-d133-09173f13e4c5"/>
      <resource>
         <Location>
            <telecom>
               <system value="phone"/>
               <value value="+1-(555)555-1212;ext=9998"/>
               <use value="work"/>
            </telecom>
            <address>
               <line value="1002 Healthcare Drive"/>
               <city value="CHICAGO"/>
               <state value="IL"/>
               <postalCode value="60612"/>
               <country value="USA"/>
            </address>
         </Location>
      </resource>
   </entry>
   <entry>
      <fullUrl value="urn:uuid:6b0e6ecd-a12b-11ef-d133-09173f13e4c5"/>
      <resource>
         <Organization>
            <meta>
               <profile value="http://hl7.org/fhir/us/ecr/StructureDefinition/us-ph-organization"/>
            </meta>
            <identifier>
               <system value="http://hl7.org/fhir/sid/us-npi"/>
               <value value="88888888"/>
            </identifier>
            <active value="true"/>
            <name value="Good Health Hospital"/>
            <telecom>
               <system value="phone"/>
               <value value="+1(555)555-1212"/>
               <use value="work"/>
            </telecom>
            <address>
               <line value="1002 Healthcare Drive"/>
               <city value="CHICAGO"/>
               <state value="IL"/>
               <postalCode value="60612"/>
               <country value="USA"/>
            </address>
         </Organization>
      </resource>
   </entry>
   <entry>
      <fullUrl value="urn:uuid:6b0e6f5c-a12b-11ef-d133-09173f13e4c5"/>
      <resource>
         <ServiceRequest>
            <meta>
               <profile value="http://hl7.org/fhir/us/ecr/StructureDefinition/eicr-servicerequest"/>
            </meta>
            <identifier>
               <system value="urn:ietf:rfc:3986"/>
               <value value="urn:uuid:b52bee94-c34b-4e2c-8c15-5ad9d6def205"/>
            </identifier>
            <status value="active"/>
            <intent value="order"/>
            <code>
               <coding>
                  <system value="http://loinc.org"/>
                  <code value="80825-3"/>
                  <display value="Zika virus envelope E gene [Presence] in Serum by NAA with probe detection"/>
               </coding>
            </code>
            <subject>
               <reference value="urn:uuid:6b0c9adc-a12b-11ef-d133-09173f13e4c5"/>
            </subject>
            <occurrenceDateTime value="2020-11-08"/>
         </ServiceRequest>
      </resource>
   </entry>
   <!--Planned Procedure-->
   <entry>
      <fullUrl value="urn:uuid:6b0e6f6d-a12b-11ef-d133-09173f13e4c5"/>
      <resource>
         <ServiceRequest>
            <meta>
               <profile value="http://hl7.org/fhir/us/ecr/StructureDefinition/eicr-servicerequest"/>
            </meta>
            <identifier>
               <system value="urn:ietf:rfc:3986"/>
               <value value="urn:uuid:9a6d1bac-17d3-4195-89c4-1121bc809b5a"/>
            </identifier>
            <status value="active"/>
            <intent value="order"/>
            <code>
               <coding>
                  <system value="http://snomed.info/sct"/>
                  <code value="233573008"/>
                  <display value="Extracorporeal membrane oxygenation (procedure)"/>
               </coding>
            </code>
            <subject>
               <reference value="urn:uuid:6b0c9adc-a12b-11ef-d133-09173f13e4c5"/>
            </subject>
            <occurrenceDateTime value="2020-11-08"/>
         </ServiceRequest>
      </resource>
   </entry>
   <entry>
      <fullUrl value="urn:uuid:6b0e6f7a-a12b-11ef-d133-09173f13e4c5"/>
      <resource>
         <ServiceRequest>
            <meta>
               <profile value="http://hl7.org/fhir/us/ecr/StructureDefinition/eicr-servicerequest"/>
            </meta>
            <identifier>
               <system value="urn:ietf:rfc:3986"/>
               <value value="urn:uuid:7658963e-54da-496f-bf18-dea1dddaa3b0"/>
            </identifier>
            <status value="active"/>
            <intent value="plan"/>
            <code>
               <coding>
                  <system value="http://snomed.info/sct"/>
                  <code value="409524006"/>
                  <display value="Airborne precautions (procedure)"/>
               </coding>
            </code>
            <subject>
               <reference value="urn:uuid:6b0c9adc-a12b-11ef-d133-09173f13e4c5"/>
            </subject>
            <occurrenceDateTime value="2020-11-08"/>
         </ServiceRequest>
      </resource>
   </entry>
   <entry>
      <fullUrl value="urn:uuid:6b0e6f86-a12b-11ef-d133-09173f13e4c5"/>
      <resource>
         <ServiceRequest>
            <meta>
               <profile value="http://hl7.org/fhir/us/ecr/StructureDefinition/eicr-servicerequest"/>
            </meta>
            <identifier>
               <system value="urn:ietf:rfc:3986"/>
               <value value="urn:uuid:b52bee94-c34b-4e2c-8c15-5ad9d6def204"/>
            </identifier>
            <status value="active"/>
            <intent value="plan"/>
            <code>
               <coding>
                  <system value="http://snomed.info/sct"/>
                  <code value="385857005"/>
                  <display value="Ventilator care and adjustment (regime/therapy)"/>
               </coding>
            </code>
            <subject>
               <reference value="urn:uuid:6b0c9adc-a12b-11ef-d133-09173f13e4c5"/>
            </subject>
            <occurrenceDateTime value="2020-11-08"/>
         </ServiceRequest>
      </resource>
   </entry>
   <entry>
      <fullUrl value="urn:uuid:6b0e6ff9-a12b-11ef-d133-09173f13e4c5"/>
      <resource>
         <Condition>
            <meta>
               <profile value="http://hl7.org/fhir/us/ecr/StructureDefinition/us-ph-condition"/>
            </meta>
            <identifier>
               <system value="urn:ietf:rfc:3986"/>
               <value value="urn:uuid:db734647-fc99-424c-a864-7e3cda82e705"/>
            </identifier>
            <clinicalStatus>
               <coding>
                  <system value="http://terminology.hl7.org/CodeSystem/condition-clinical"/>
                  <code value="active"/>
               </coding>
            </clinicalStatus>
            <category>
               <coding>
                  <system value="http://terminology.hl7.org/CodeSystem/condition-category"/>
                  <code value="encounter-diagnosis"/>
               </coding>
            </category>
            <code>
               <coding>
                  <system value="http://snomed.info/sct"/>
                  <code value="27836007"/>
                  <display value="Pertussis (disorder)"/>
               </coding>
            </code>
            <subject>
               <reference value="urn:uuid:6b0c9adc-a12b-11ef-d133-09173f13e4c5"/>
            </subject>
            <onsetDateTime value="2020-11-07"/>
         </Condition>
      </resource>
   </entry>
   <entry>
      <fullUrl value="urn:uuid:6b0e7011-a12b-11ef-d133-09173f13e4c5"/>
      <resource>
         <Condition>
            <meta>
               <profile value="http://hl7.org/fhir/us/ecr/StructureDefinition/us-ph-condition"/>
            </meta>
            <identifier>
               <system value="urn:ietf:rfc:3986"/>
               <value value="urn:uuid:db734647-fc99-424c-a864-7e3cda82e704"/>
            </identifier>
            <clinicalStatus>
               <coding>
                  <system value="http://terminology.hl7.org/CodeSystem/condition-clinical"/>
                  <code value="active"/>
               </coding>
            </clinicalStatus>
            <category>
               <coding>
                  <system value="http://terminology.hl7.org/CodeSystem/condition-category"/>
                  <code value="encounter-diagnosis"/>
               </coding>
            </category>
            <code>
               <coding>
                  <system value="http://snomed.info/sct"/>
                  <code value="282291009"/>
                  <display value="Diagnosis interpretation"/>
               </coding>
            </code>
            <subject>
               <reference value="urn:uuid:6b0c9adc-a12b-11ef-d133-09173f13e4c5"/>
            </subject>
            <onsetDateTime value="2020-11-07"/>
         </Condition>
      </resource>
   </entry>
   <entry>
      <fullUrl value="urn:uuid:6b0e7045-a12b-11ef-d133-09173f13e4c5"/>
      <resource>
         <MedicationAdministration><!--US Public Health Therapeutic Medication Response Extension-->
            <extension url="http://hl7.org/fhir/us/ecr/StructureDefinition/us-ph-therapeutic-medication-response-extension">
               <valueCodeableConcept>
                  <coding>
                     <system value="http://snomed.info/sct"/>
                     <code value="268910001"/>
                     <display value="Patient's condition improved (finding)"/>
                  </coding>
               </valueCodeableConcept>
            </extension>
            <identifier>
               <system value="urn:ietf:rfc:3986"/>
               <value value="urn:uuid:6c844c75-aa34-411c-b7bd-5e4a9f206e29"/>
            </identifier>
            <status value="completed"/>
            <medicationReference>
               <reference value="urn:uuid:6b0e7050-a12b-11ef-d133-09173f13e4c5"/>
            </medicationReference>
            <subject>
               <reference value="urn:uuid:6b0c9adc-a12b-11ef-d133-09173f13e4c5"/>
            </subject>
            <effectiveDateTime value="2020-11-07T11:59:00.000-07:00"/>
            <dosage>
               <route>
                  <coding>
                     <system value="http://ncimeta.nci.nih.gov"/>
                     <code value="C38288"/>
                     <display value="ORAL"/>
                  </coding>
               </route>
               <dose>
                  <value value="1"/>
                  <unit value="g"/>
               </dose>
            </dosage>
         </MedicationAdministration>
      </resource>
   </entry>
   <entry>
      <fullUrl value="urn:uuid:6b0e7050-a12b-11ef-d133-09173f13e4c5"/>
      <resource>
         <Medication>
            <meta>
               <profile value="http://hl7.org/fhir/us/core/StructureDefinition/us-core-medication"/>
            </meta>
            <code>
               <coding>
                  <system value="http://www.nlm.nih.gov/research/umls/rxnorm"/>
                  <code value="248656"/>
                  <display value="Azithromycin 500 MG Oral Tablet"/>
               </coding>
            </code>
         </Medication>
      </resource>
   </entry>
   <entry>
      <fullUrl value="urn:uuid:6b0e706c-a12b-11ef-d133-09173f13e4c5"/>
      <resource>
         <MedicationAdministration>
            <identifier>
               <system value="urn:ietf:rfc:3986"/>
               <value value="urn:uuid:6c844c75-aa34-411c-b7bd-5e4a9f206e29"/>
            </identifier>
            <status value="completed"/>
            <medicationReference>
               <reference value="urn:uuid:6b0e7078-a12b-11ef-d133-09173f13e4c5"/>
            </medicationReference>
            <subject>
               <reference value="urn:uuid:6b0c9adc-a12b-11ef-d133-09173f13e4c5"/>
            </subject>
            <supportingInformation>
               <reference value="urn:uuid:6b0e707f-a12b-11ef-d133-09173f13e4c5"/>
            </supportingInformation>
            <effectivePeriod>
               <start value="2012-03-18"/>
            </effectivePeriod>
            <dosage>
               <route>
                  <coding>
                     <system value="http://ncimeta.nci.nih.gov"/>
                     <code value="C38288"/>
                     <display value="ORAL"/>
                  </coding>
               </route>
               <dose>
                  <value value="1"/>
               </dose>
            </dosage>
         </MedicationAdministration>
      </resource>
   </entry>
   <entry>
      <fullUrl value="urn:uuid:6b0e7078-a12b-11ef-d133-09173f13e4c5"/>
      <resource>
         <Medication>
            <meta>
               <profile value="http://hl7.org/fhir/us/core/StructureDefinition/us-core-medication"/>
            </meta>
            <code>
               <coding>
                  <system value="http://www.nlm.nih.gov/research/umls/rxnorm"/>
                  <code value="197380"/>
                  <display value="Atenolol 25 MG Oral Tablet"/>
               </coding>
            </code>
         </Medication>
      </resource>
   </entry>
   <entry>
      <fullUrl value="urn:uuid:6b0e707f-a12b-11ef-d133-09173f13e4c5"/>
      <resource><!--Processing as generic observation: 2.16.840.1.113883.10.20.22.4.9:-->
         <Observation>
            <identifier>
               <system value="urn:ietf:rfc:3986"/>
               <value value="urn:uuid:4adc1020-7b14-11db-9fe1-0800200c9a64"/>
            </identifier>
            <status value="final"/>
            <code>
               <coding>
                  <system value="http://terminology.hl7.org/CodeSystem/v3-ActCode"/>
                  <code value="ASSERTION"/>
               </coding>
            </code>
            <subject>
               <reference value="urn:uuid:6b0c9adc-a12b-11ef-d133-09173f13e4c5"/>
            </subject>
            <effectivePeriod>
               <start value="2008-02-26T08:05:00.000-08:00"/>
               <end value="2008-02-28T12:05:00.000-08:00"/>
            </effectivePeriod>
            <!--INFO: Using document effective time as issued date-->
            <issued value="2020-11-07T09:44:21.000-05:00"/>
            <valueCodeableConcept>
               <coding>
                  <system value="http://snomed.info/sct"/>
                  <code value="422587007"/>
                  <display value="Nausea"/>
               </coding>
            </valueCodeableConcept>
         </Observation>
      </resource>
   </entry>
   <entry>
      <fullUrl value="urn:uuid:6b0e708b-a12b-11ef-d133-09173f13e4c5"/>
      <resource>
         <MedicationAdministration>
            <identifier>
               <system value="urn:ietf:rfc:3986"/>
               <value value="urn:uuid:6c844c75-aa34-411c-b7bd-5e4a9f206e29"/>
            </identifier>
            <status value="in-progress"/>
            <medicationReference>
               <reference value="urn:uuid:6b0e7097-a12b-11ef-d133-09173f13e4c5"/>
            </medicationReference>
            <subject>
               <reference value="urn:uuid:6b0c9adc-a12b-11ef-d133-09173f13e4c5"/>
            </subject>
            <effectivePeriod>
               <start value="2012-03-18"/>
            </effectivePeriod>
            <dosage>
               <route>
                  <coding>
                     <system value="http://ncimeta.nci.nih.gov"/>
                     <code value="C38288"/>
                     <display value="ORAL"/>
                  </coding>
               </route>
               <dose>
                  <value value="1"/>
               </dose>
            </dosage>
         </MedicationAdministration>
      </resource>
   </entry>
   <entry>
      <fullUrl value="urn:uuid:6b0e7097-a12b-11ef-d133-09173f13e4c5"/>
      <resource>
         <Medication>
            <meta>
               <profile value="http://hl7.org/fhir/us/core/StructureDefinition/us-core-medication"/>
            </meta>
            <code>
               <coding>
                  <system value="http://www.nlm.nih.gov/research/umls/rxnorm"/>
                  <code value="197380"/>
                  <display value="Atenolol 25 MG Oral Tablet"/>
               </coding>
            </code>
         </Medication>
      </resource>
   </entry>
   <entry>
      <fullUrl value="urn:uuid:6b0e709e-a12b-11ef-d133-09173f13e4c5"/>
      <resource>
         <MedicationAdministration>
            <identifier>
               <system value="urn:ietf:rfc:3986"/>
               <value value="urn:uuid:6c844c75-aa34-411c-b7bd-5e4a9f206e29"/>
            </identifier>
            <status value="in-progress"/>
            <medicationReference>
               <reference value="urn:uuid:6b0e70aa-a12b-11ef-d133-09173f13e4c5"/>
            </medicationReference>
            <subject>
               <reference value="urn:uuid:6b0c9adc-a12b-11ef-d133-09173f13e4c5"/>
            </subject>
            <effectivePeriod>
               <start value="2012-03-18"/>
            </effectivePeriod>
            <dosage>
               <route>
                  <coding>
                     <system value="http://ncimeta.nci.nih.gov"/>
                     <code value="C38288"/>
                     <display value="ORAL"/>
                  </coding>
               </route>
               <dose>
                  <value value="1"/>
               </dose>
            </dosage>
         </MedicationAdministration>
      </resource>
   </entry>
   <entry>
      <fullUrl value="urn:uuid:6b0e70b3-a12b-11ef-d133-09173f13e4c5"/>
      <resource>
         <PractitionerRole>
            <meta>
               <profile value="http://hl7.org/fhir/us/ecr/StructureDefinition/us-ph-practitionerrole"/>
            </meta>
            <!--/ClinicalDocument[cda:id[@root="2.16.840.1.113883.9.9.9.9.9"][@extension="db734647-fc99-424c-a864-7e3cda82e704"]]/component/structuredBody/component/section/entry/substanceAdministration[cda:id[@root="6c844c75-aa34-411c-b7bd-5e4a9f206e29"]]/author/assignedAuthor[cda:id[@root="20cf14fb-b65c-4c8c-a54d-b0cca834c18c"]]-->
            <identifier>
               <system value="urn:ietf:rfc:3986"/>
               <value value="urn:uuid:20cf14fb-b65c-4c8c-a54d-b0cca834c18c"/>
            </identifier>
            <practitioner>
               <reference value="urn:uuid:6b0e70b6-a12b-11ef-d133-09173f13e4c5"/>
            </practitioner>
            <organization>
               <reference value="urn:uuid:6b0e70bb-a12b-11ef-d133-09173f13e4c5"/>
            </organization>
            <code>
               <coding>
                  <system value="urn:oid:2.16.840.1.113883.5.53"/>
                  <code value="163W00000X"/>
                  <display value="Registered nurse"/>
               </coding>
            </code>
            <telecom>
               <system value="other"/>
               <value>
                  <extension url="http://hl7.org/fhir/StructureDefinition/data-absent-reason">
                     <valueCode value="unknown"/>
                  </extension>
               </value>
            </telecom>
         </PractitionerRole>
      </resource>
   </entry>
   <entry>
      <fullUrl value="urn:uuid:6b0e70b6-a12b-11ef-d133-09173f13e4c5"/>
      <resource>
         <Practitioner>
            <meta>
               <profile value="http://hl7.org/fhir/us/core/StructureDefinition/us-core-practitioner"/>
            </meta>
            <identifier>
               <system value="urn:ietf:rfc:3986"/>
               <value value="urn:uuid:20cf14fb-b65c-4c8c-a54d-b0cca834c18c"/>
            </identifier>
            <name>
               <family value="Nightingale"/>
               <given value="Nurse"/>
               <suffix value="RN"/>
            </name>
         </Practitioner>
      </resource>
   </entry>
   <entry>
      <fullUrl value="urn:uuid:6b0e70bb-a12b-11ef-d133-09173f13e4c5"/>
      <resource>
         <Organization>
            <meta>
               <profile value="http://hl7.org/fhir/us/ecr/StructureDefinition/us-ph-organization"/>
            </meta>
            <identifier>
               <system value="urn:ietf:rfc:3986"/>
               <value value="urn:oid:2.16.840.1.113883.19.5"/>
            </identifier>
            <active value="true"/>
            <name value="Good Health Hospital"/>
            <telecom>
               <extension url="http://hl7.org/fhir/StructureDefinition/data-absent-reason">
                  <valueCode value="unknown"/>
               </extension>
            </telecom>
            <address>
               <extension url="http://hl7.org/fhir/StructureDefinition/data-absent-reason">
                  <valueCode value="unknown"/>
               </extension>
            </address>
         </Organization>
      </resource>
   </entry>
   <entry>
      <fullUrl value="urn:uuid:6b0e70b0-a12b-11ef-d133-09173f13e4c5"/>
      <resource>
         <Provenance>
            <target>
               <reference value="urn:uuid:6b0e709e-a12b-11ef-d133-09173f13e4c5"/>
            </target>
            <recorded value="2013-08-01T12:35:00.000-08:00"/>
            <agent>
               <type>
                  <coding>
                     <system value="http://terminology.hl7.org/CodeSystem/provenance-participant-type"/>
                     <code value="author"/>
                  </coding>
               </type>
               <who>
                  <reference value="urn:uuid:6b0e70b3-a12b-11ef-d133-09173f13e4c5"/>
               </who>
            </agent>
         </Provenance>
      </resource>
   </entry>
   <entry>
      <fullUrl value="urn:uuid:6b0e70aa-a12b-11ef-d133-09173f13e4c5"/>
      <resource>
         <Medication>
            <meta>
               <profile value="http://hl7.org/fhir/us/core/StructureDefinition/us-core-medication"/>
            </meta>
            <code>
               <coding>
                  <system value="http://www.nlm.nih.gov/research/umls/rxnorm"/>
                  <code value="380845"/>
                  <display value="ibuprofen 0.05 MG/MG"/>
               </coding>
            </code>
         </Medication>
      </resource>
   </entry>
   <!--WARNING: No template match for 2.16.840.1.113883.10.20.22.4.36: 2014-06-09-->
   <entry>
      <fullUrl value="urn:uuid:6b0e70ea-a12b-11ef-d133-09173f13e4c5"/>
      <resource>
         <Condition>
            <meta>
               <profile value="http://hl7.org/fhir/us/ecr/StructureDefinition/us-ph-condition"/>
            </meta>
            <identifier>
               <system value="urn:ietf:rfc:3986"/>
               <value value="urn:uuid:db734647-fc99-424c-a864-7e3cda82e705"/>
            </identifier>
            <clinicalStatus>
               <coding>
                  <system value="http://terminology.hl7.org/CodeSystem/condition-clinical"/>
                  <code value="active"/>
               </coding>
            </clinicalStatus>
            <category>
               <coding>
                  <system value="http://terminology.hl7.org/CodeSystem/condition-category"/>
                  <code value="problem-list-item"/>
               </coding>
            </category>
            <code>
               <coding>
                  <system value="http://snomed.info/sct"/>
                  <code value="27836007"/>
                  <display value="Pertussis (disorder)"/>
               </coding>
            </code>
            <subject>
               <reference value="urn:uuid:6b0c9adc-a12b-11ef-d133-09173f13e4c5"/>
            </subject>
            <onsetDateTime value="2020-11-07"/>
         </Condition>
      </resource>
   </entry>
   <!--WARNING: No template match for 2.16.840.1.113883.10.20.22.4.33: 2015-08-01-->
   <entry>
      <fullUrl value="urn:uuid:6b0e716a-a12b-11ef-d133-09173f13e4c5"/>
      <resource>
         <Condition>
            <meta>
               <profile value="http://hl7.org/fhir/us/ecr/StructureDefinition/us-ph-condition"/>
            </meta>
            <identifier>
               <system value="urn:ietf:rfc:3986"/>
               <value value="urn:uuid:ab1791b0-5c71-11db-b0de-0800200c9a66"/>
            </identifier>
            <clinicalStatus>
               <coding>
                  <system value="http://terminology.hl7.org/CodeSystem/condition-clinical"/>
                  <code value="active"/>
               </coding>
            </clinicalStatus>
            <category>
               <coding>
                  <system value="http://terminology.hl7.org/CodeSystem/condition-category"/>
                  <code value="problem-list-item"/>
               </coding>
            </category>
            <code>
               <coding>
                  <system value="http://snomed.info/sct"/>
                  <code value="35064005"/>
                  <display value="Dark stools (finding)"/>
               </coding>
            </code>
            <subject>
               <reference value="urn:uuid:6b0c9adc-a12b-11ef-d133-09173f13e4c5"/>
            </subject>
            <onsetDateTime value="2020-11-01"/>
            <recordedDate value="2020-11-07"/>
         </Condition>
      </resource>
   </entry>
   <entry>
      <fullUrl value="urn:uuid:6b0e717a-a12b-11ef-d133-09173f13e4c5"/>
      <resource>
         <Condition>
            <meta>
               <profile value="http://hl7.org/fhir/us/ecr/StructureDefinition/us-ph-condition"/>
            </meta>
            <identifier>
               <system value="urn:ietf:rfc:3986"/>
               <value value="urn:uuid:ab1791b0-5c71-11db-b0de-0800200c9a67"/>
            </identifier>
            <clinicalStatus>
               <coding>
                  <system value="http://terminology.hl7.org/CodeSystem/condition-clinical"/>
                  <code value="active"/>
               </coding>
            </clinicalStatus>
            <category>
               <coding>
                  <system value="http://terminology.hl7.org/CodeSystem/condition-category"/>
                  <code value="problem-list-item"/>
               </coding>
            </category>
            <code>
               <coding>
                  <system value="http://snomed.info/sct"/>
                  <code value="43025008"/>
                  <display value="Paroxysmal cough (finding)"/>
               </coding>
            </code>
            <subject>
               <reference value="urn:uuid:6b0c9adc-a12b-11ef-d133-09173f13e4c5"/>
            </subject>
            <onsetDateTime value="2020-11-04"/>
            <recordedDate value="2020-11-07"/>
         </Condition>
      </resource>
   </entry>
   <entry>
      <fullUrl value="urn:uuid:6b0e7197-a12b-11ef-d133-09173f13e4c5"/>
      <resource>
         <Condition>
            <meta>
               <profile value="http://hl7.org/fhir/us/ecr/StructureDefinition/us-ph-condition"/>
            </meta>
            <identifier>
               <system value="urn:ietf:rfc:3986"/>
               <value value="urn:uuid:ab1791b0-5c71-11db-b0de-0800200c9a66"/>
            </identifier>
            <clinicalStatus>
               <coding>
                  <system value="http://terminology.hl7.org/CodeSystem/condition-clinical"/>
                  <code value="active"/>
               </coding>
            </clinicalStatus>
            <category>
               <coding>
                  <system value="http://terminology.hl7.org/CodeSystem/condition-category"/>
                  <code value="problem-list-item"/>
               </coding>
            </category>
            <code>
               <coding>
                  <system value="http://snomed.info/sct"/>
                  <code value="35064005"/>
                  <display value="Dark stools (finding)"/>
               </coding>
            </code>
            <subject>
               <reference value="urn:uuid:6b0c9adc-a12b-11ef-d133-09173f13e4c5"/>
            </subject>
            <onsetDateTime value="2020-11-01"/>
            <recordedDate value="2020-05-23"/>
         </Condition>
      </resource>
   </entry>
   <entry>
      <fullUrl value="urn:uuid:6b0e71a7-a12b-11ef-d133-09173f13e4c5"/>
      <resource>
         <Condition>
            <meta>
               <profile value="http://hl7.org/fhir/us/ecr/StructureDefinition/us-ph-condition"/>
            </meta>
            <identifier>
               <system value="urn:ietf:rfc:3986"/>
               <value value="urn:uuid:ab1791b0-5c71-11db-b0de-0800200c9a67"/>
            </identifier>
            <clinicalStatus>
               <coding>
                  <system value="http://terminology.hl7.org/CodeSystem/condition-clinical"/>
                  <code value="active"/>
               </coding>
            </clinicalStatus>
            <category>
               <coding>
                  <system value="http://terminology.hl7.org/CodeSystem/condition-category"/>
                  <code value="problem-list-item"/>
               </coding>
            </category>
            <code>
               <coding>
                  <system value="http://snomed.info/sct"/>
                  <code value="43025008"/>
                  <display value="Paroxysmal cough (finding)"/>
               </coding>
            </code>
            <subject>
               <reference value="urn:uuid:6b0c9adc-a12b-11ef-d133-09173f13e4c5"/>
            </subject>
            <onsetDateTime value="2020-11-04"/>
            <recordedDate value="2020-05-23"/>
         </Condition>
      </resource>
   </entry>
   <entry>
      <fullUrl value="urn:uuid:6b20b626-a12b-11ef-d133-09173f13e4c5"/>
      <resource>
         <Observation>
            <meta>
               <profile value="http://hl7.org/fhir/us/core/StructureDefinition/us-core-observation-lab"/>
               <!--CDA templateId: urn:hl7ii:2.16.840.1.113883.10.20.22.4.1:2015-08-01-->
            </meta>
            <identifier>
               <system value="urn:ietf:rfc:3986"/>
               <value value="urn:uuid:7d5a02b0-67a4-11db-bd13-0800200c9a66"/>
            </identifier>
            <status value="final"/>
            <category>
               <coding>
                  <system value="http://terminology.hl7.org/CodeSystem/observation-category"/>
                  <code value="laboratory"/>
               </coding>
            </category>
            <code>
               <coding>
                  <system value="http://loinc.org"/>
                  <code value="57021-8"/>
                  <display value="CBC W Auto Differential panel - Blood"/>
               </coding>
            </code>
            <subject>
               <reference value="urn:uuid:6b0c9adc-a12b-11ef-d133-09173f13e4c5"/>
            </subject>
            <effectivePeriod>
               <start value="2020-11-07"/>
               <end value="2020-11-07"/>
            </effectivePeriod>
            <specimen><!--2.16.840.1.113883.10.20.22.4.415:2018-09-01-->
               <reference value="urn:uuid:6b20b662-a12b-11ef-d133-09173f13e4c5"/>
            </specimen>
            <hasMember><!--2.16.840.1.113883.10.20.22.4.2--><!--2.16.840.1.113883.10.20.22.4.2:2015-08-01-->
               <reference value="urn:uuid:6b20b635-a12b-11ef-d133-09173f13e4c5"/>
            </hasMember>
            <hasMember><!--2.16.840.1.113883.10.20.22.4.2--><!--2.16.840.1.113883.10.20.22.4.2:2015-08-01-->
               <reference value="urn:uuid:6b20b64a-a12b-11ef-d133-09173f13e4c5"/>
            </hasMember>
         </Observation>
      </resource>
   </entry>
   <entry>
      <fullUrl value="urn:uuid:6b20b635-a12b-11ef-d133-09173f13e4c5"/>
      <resource>
         <Observation>
            <meta>
               <profile value="http://hl7.org/fhir/us/core/StructureDefinition/us-core-observation-lab"/>
               <!--CDA templateId: urn:hl7ii:2.16.840.1.113883.10.20.22.4.2:2015-08-01-->
            </meta>
            <identifier>
               <system value="urn:ietf:rfc:3986"/>
               <value value="urn:uuid:7c0704bb-9c40-41b5-9c7d-26b2d59e234f"/>
            </identifier>
            <status value="final"/>
            <category>
               <coding>
                  <system value="http://terminology.hl7.org/CodeSystem/observation-category"/>
                  <code value="laboratory"/>
               </coding>
            </category>
            <code>
               <coding>
                  <system value="http://loinc.org"/>
                  <code value="20570-8"/>
                  <display value="Hematocrit [Volume Fraction] of Blood"/>
               </coding>
            </code>
            <subject>
               <reference value="urn:uuid:6b0c9adc-a12b-11ef-d133-09173f13e4c5"/>
            </subject>
            <effectiveDateTime value="2020-11-07"/>
            <valueQuantity>
               <value value="35.3"/>
               <unit value="%"/>
            </valueQuantity>
            <interpretation>
               <coding>
                  <system value="http://terminology.hl7.org/CodeSystem/v3-ObservationInterpretation"/>
                  <code value="L"/>
                  <display value="Low"/>
               </coding>
            </interpretation>
            <referenceRange>
               <low>
                  <value value="34.9"/>
                  <unit value="%"/>
               </low>
               <high>
                  <value value="44.5"/>
                  <unit value="%"/>
               </high>
               <text value="Low"/>
            </referenceRange>
         </Observation>
      </resource>
   </entry>
   <entry>
      <fullUrl value="urn:uuid:6b20b64a-a12b-11ef-d133-09173f13e4c5"/>
      <resource>
         <Observation>
            <meta>
               <profile value="http://hl7.org/fhir/us/core/StructureDefinition/us-core-observation-lab"/>
               <!--CDA templateId: urn:hl7ii:2.16.840.1.113883.10.20.22.4.2:2015-08-01-->
            </meta>
            <identifier>
               <system value="urn:ietf:rfc:3986"/>
               <value value="urn:uuid:7c0704bb-9c40-41b5-9c7d-26b2d59e234g"/>
            </identifier>
            <status value="final"/>
            <category>
               <coding>
                  <system value="http://terminology.hl7.org/CodeSystem/observation-category"/>
                  <code value="laboratory"/>
               </coding>
            </category>
            <code>
               <coding>
                  <system value="http://loinc.org"/>
                  <code value="731-0"/>
                  <display value="Lymphocytes [#/volume] in Blood by Automated count"/>
               </coding>
            </code>
            <subject>
               <reference value="urn:uuid:6b0c9adc-a12b-11ef-d133-09173f13e4c5"/>
            </subject>
            <effectiveDateTime value="2020-11-07"/>
            <valueQuantity>
               <value value="5.2"/>
               <unit value="10*3/uL"/>
            </valueQuantity>
            <interpretation>
               <coding>
                  <system value="http://terminology.hl7.org/CodeSystem/v3-ObservationInterpretation"/>
                  <code value="H"/>
                  <display value="High"/>
               </coding>
            </interpretation>
            <referenceRange>
               <low>
                  <value value="1.0"/>
                  <unit value="10*3/uL"/>
               </low>
               <high>
                  <value value="4.8"/>
                  <unit value="10*3/uL"/>
               </high>
            </referenceRange>
         </Observation>
      </resource>
   </entry>
   <entry>
      <fullUrl value="urn:uuid:6b20b662-a12b-11ef-d133-09173f13e4c5"/>
      <resource>
         <Specimen>
            <identifier>
               <system value="urn:ietf:rfc:3986"/>
               <value value="urn:uuid:44fd0410-6115-4b8e-8ee9-a51b3817df66"/>
            </identifier>
            <status value="available"/>
            <type>
               <coding>
                  <system value="http://snomed.info/sct"/>
                  <code value="119297000"/>
                  <display value="Blood specimen (specimen)"/>
               </coding>
            </type>
            <collection>
               <collectedPeriod>
                  <start value="2020-03-09"/>
               </collectedPeriod>
               <bodySite>
                  <coding>
                     <system value="http://snomed.info/sct"/>
                     <code value="368208006"/>
                     <display value="Left upper arm structure (body structure)"/>
                  </coding>
               </bodySite>
            </collection>
         </Specimen>
      </resource>
   </entry>
   <entry>
      <fullUrl value="urn:uuid:6b20b677-a12b-11ef-d133-09173f13e4c5"/>
      <resource>
         <Observation>
            <meta>
               <profile value="http://hl7.org/fhir/us/core/StructureDefinition/us-core-observation-lab"/>
               <!--CDA templateId: urn:hl7ii:2.16.840.1.113883.10.20.22.4.1:2015-08-01-->
            </meta>
            <identifier>
               <system value="urn:ietf:rfc:3986"/>
               <value value="urn:uuid:a4307cb2-b3b4-4f42-be03-1d9077376f4a"/>
            </identifier>
            <status value="final"/>
            <category>
               <coding>
                  <system value="http://terminology.hl7.org/CodeSystem/observation-category"/>
                  <code value="laboratory"/>
               </coding>
            </category>
            <code>
               <coding>
                  <system value="http://loinc.org"/>
                  <code value="94510-5"/>
                  <display value="SARS-CoV-2 (COVID-19) N gene [Cycle Threshold #] in Specimen by NAA with probe detection"/>
               </coding>
            </code>
            <subject>
               <reference value="urn:uuid:6b0c9adc-a12b-11ef-d133-09173f13e4c5"/>
            </subject>
            <effectivePeriod>
               <start value="2020-11-07"/>
               <end value="2020-11-07"/>
            </effectivePeriod>
            <hasMember><!--2.16.840.1.113883.10.20.22.4.2--><!--2.16.840.1.113883.10.20.22.4.2:2015-08-01--><!--2.16.840.1.113883.10.20.15.2.3.2:2019-04-01-->
               <reference value="urn:uuid:6b20b685-a12b-11ef-d133-09173f13e4c5"/>
            </hasMember>
         </Observation>
      </resource>
   </entry>
   <entry>
      <fullUrl value="urn:uuid:6b20b685-a12b-11ef-d133-09173f13e4c5"/>
      <resource>
         <Observation>
            <meta>
               <profile value="http://hl7.org/fhir/us/core/StructureDefinition/us-core-observation-lab"/>
               <!--CDA templateId: urn:hl7ii:2.16.840.1.113883.10.20.22.4.2:2015-08-01-->
            </meta>
            <identifier>
               <system value="urn:ietf:rfc:3986"/>
               <value value="urn:uuid:bf9c0a26-4524-4395-b3ce-100450b9c9ad"/>
            </identifier>
            <status value="final"/>
            <category>
               <coding>
                  <system value="http://terminology.hl7.org/CodeSystem/observation-category"/>
                  <code value="laboratory"/>
               </coding>
            </category>
            <code>
               <coding>
                  <system value="http://loinc.org"/>
                  <code value="94510-5"/>
                  <display value="SARS-CoV-2 (COVID-19) N gene [Cycle Threshold #] in Specimen by NAA with probe detection"/>
               </coding>
            </code>
            <subject>
               <reference value="urn:uuid:6b0c9adc-a12b-11ef-d133-09173f13e4c5"/>
            </subject>
            <effectiveDateTime value="2020-11-07"/>
            <valueString value="POS"/>
            <interpretation>
               <coding>
                  <system value="http://terminology.hl7.org/CodeSystem/v3-ObservationInterpretation"/>
                  <code value="A"/>
                  <display value="Abnormal"/>
               </coding>
            </interpretation>
            <referenceRange>
               <high>
                  <value value="45"/>
                  <unit value="[iU]/mL"/>
               </high>
            </referenceRange>
         </Observation>
      </resource>
   </entry>
   <entry>
      <fullUrl value="urn:uuid:6b20b6bc-a12b-11ef-d133-09173f13e4c5"/>
      <resource>
         <Procedure>
            <meta>
               <profile value="http://hl7.org/fhir/us/ecr/StructureDefinition/eicr-procedure"/>
            </meta>
            <identifier>
               <system value="urn:ietf:rfc:3986"/>
               <value value="urn:uuid:d68b7e32-7810-4f5b-9cc2-acd54b0fd85d"/>
            </identifier>
            <status value="completed"/>
            <code>
               <coding>
                  <system value="http://snomed.info/sct"/>
                  <code value="73761001"/>
                  <display value="Colonoscopy"/>
               </coding>
            </code>
            <subject>
               <reference value="urn:uuid:6b0c9adc-a12b-11ef-d133-09173f13e4c5"/>
            </subject>
            <performedPeriod>
               <start value="2020-11-15"/>
               <end value="2020-11-15"/>
            </performedPeriod>
         </Procedure>
      </resource>
   </entry>
   <entry>
      <fullUrl value="urn:uuid:6b20b6c5-a12b-11ef-d133-09173f13e4c5"/>
      <resource>
         <Procedure>
            <meta>
               <profile value="http://hl7.org/fhir/us/ecr/StructureDefinition/eicr-procedure"/>
            </meta>
            <identifier>
               <system value="urn:ietf:rfc:3986"/>
               <value value="urn:uuid:6dab0739-749d-4c62-8f5e-eea77a045ce8"/>
            </identifier>
            <status value="completed"/>
            <code>
               <coding>
                  <system value="http://snomed.info/sct"/>
                  <code value="274025005"/>
                  <display value="Colonic polypectomy"/>
               </coding>
            </code>
            <subject>
               <reference value="urn:uuid:6b0c9adc-a12b-11ef-d133-09173f13e4c5"/>
            </subject>
            <performedPeriod>
               <start value="2020-11-15"/>
               <end value="2020-11-15"/>
            </performedPeriod>
            <bodySite>
               <coding>
                  <system value="http://snomed.info/sct"/>
                  <code value="416949008"/>
                  <display value="Abdomen and pelvis"/>
               </coding>
            </bodySite>
            <outcome>
               <coding>
                  <extension url="http://hl7.org/fhir/StructureDefinition/data-absent-reason">
                     <valueCode value="not-applicable"/>
                  </extension>
               </coding>
            </outcome>
         </Procedure>
      </resource>
   </entry>
   <entry>
      <fullUrl value="urn:uuid:6b20b6d3-a12b-11ef-d133-09173f13e4c5"/>
      <resource>
         <Procedure>
            <meta>
               <profile value="http://hl7.org/fhir/us/ecr/StructureDefinition/eicr-procedure"/>
            </meta>
            <identifier>
               <system value="urn:ietf:rfc:3986"/>
               <value value="urn:uuid:609a7b3b-3bd1-4e83-b621-c4afe4a90cd7"/>
            </identifier>
            <status value="completed"/>
            <code>
               <coding>
                  <system value="http://snomed.info/sct"/>
                  <code value="233573008"/>
                  <display value="Extracorporeal membrane oxygenation (procedure)"/>
               </coding>
            </code>
            <subject>
               <reference value="urn:uuid:6b0c9adc-a12b-11ef-d133-09173f13e4c5"/>
            </subject>
            <performedPeriod>
               <start value="2020-11-15"/>
               <end value="2020-11-15"/>
            </performedPeriod>
         </Procedure>
      </resource>
   </entry>
   <entry>
      <fullUrl value="urn:uuid:6b20b6df-a12b-11ef-d133-09173f13e4c5"/>
      <resource>
         <Procedure>
            <meta>
               <profile value="http://hl7.org/fhir/us/ecr/StructureDefinition/eicr-procedure"/>
            </meta>
            <identifier>
               <system value="urn:ietf:rfc:3986"/>
               <value value="urn:uuid:941aee94-1f69-4fa8-91c8-7eee00915728"/>
            </identifier>
            <status value="completed"/>
            <code>
               <coding>
                  <system value="http://snomed.info/sct"/>
                  <code value="409524006"/>
                  <display value="Airborne precautions (procedure)"/>
               </coding>
            </code>
            <subject>
               <reference value="urn:uuid:6b0c9adc-a12b-11ef-d133-09173f13e4c5"/>
            </subject>
            <performedPeriod>
               <start value="2020-11-15"/>
               <end value="2020-11-15"/>
            </performedPeriod>
         </Procedure>
      </resource>
   </entry>
   <entry>
      <fullUrl value="urn:uuid:6b20b6eb-a12b-11ef-d133-09173f13e4c5"/>
      <resource>
         <Procedure>
            <meta>
               <profile value="http://hl7.org/fhir/us/ecr/StructureDefinition/eicr-procedure"/>
            </meta>
            <identifier>
               <system value="urn:ietf:rfc:3986"/>
               <value value="urn:uuid:e535eb92-829f-45bb-8602-a49f59bb4e2c"/>
            </identifier>
            <status value="completed"/>
            <code>
               <coding>
                  <system value="http://snomed.info/sct"/>
                  <code value="385857005"/>
                  <display value="Ventilator care and adjustment (regime/therapy)"/>
               </coding>
            </code>
            <subject>
               <reference value="urn:uuid:6b0c9adc-a12b-11ef-d133-09173f13e4c5"/>
            </subject>
            <performedPeriod>
               <start value="2020-11-15"/>
               <end value="2020-11-15"/>
            </performedPeriod>
            <outcome>
               <coding>
                  <extension url="http://hl7.org/fhir/StructureDefinition/data-absent-reason">
                     <valueCode value="not-applicable"/>
                  </extension>
               </coding>
            </outcome>
         </Procedure>
      </resource>
   </entry>
   <entry>
      <fullUrl value="urn:uuid:6b20b731-a12b-11ef-d133-09173f13e4c5"/>
      <resource>
         <Immunization>
            <meta>
               <profile value="http://hl7.org/fhir/us/core/StructureDefinition/us-core-immunization"/>
               <!--CDA templateId: urn:hl7ii:2.16.840.1.113883.10.20.22.4.52:2015-08-01-->
            </meta>
            <identifier>
               <system value="urn:uuid:00000000-5cf3-ec63-0513-4a4838595787"/>
               <value value="11369-6_3-1_1.3.6.1.4.1.22812.11.2016.163.1_14168"/>
            </identifier>
            <status value="completed"/>
            <vaccineCode>
               <coding>
                  <system value="urn:oid:2.16.840.1.113883.12.292"/>
                  <code value="106"/>
                  <display value="diphtheria, tetanus toxoids and acellular pertussis vaccine, 5 pertussis antigens"/>
               </coding>
            </vaccineCode>
            <patient>
               <reference value="urn:uuid:6b0c9adc-a12b-11ef-d133-09173f13e4c5"/>
            </patient>
            <occurrenceDateTime value="2020-11-07"/>
            <!--INFO: Defaulting primarySource to false since this info is not in the C-CDA Immunization Activity template-->
            <primarySource value="false"/>
            <route>
               <coding>
                  <extension url="http://hl7.org/fhir/StructureDefinition/data-absent-reason">
                     <valueCode value="unknown"/>
                  </extension>
               </coding>
            </route>
         </Immunization>
      </resource>
   </entry>
   <entry>
      <fullUrl value="urn:uuid:6b20b742-a12b-11ef-d133-09173f13e4c5"/>
      <resource>
         <Immunization>
            <meta>
               <profile value="http://hl7.org/fhir/us/core/StructureDefinition/us-core-immunization"/>
               <!--CDA templateId: urn:hl7ii:2.16.840.1.113883.10.20.22.4.52:2015-08-01-->
            </meta>
            <identifier>
               <system value="urn:uuid:00000000-5cf3-ec63-0513-4a4838595787"/>
               <value value="11369-6_2-1_1.3.6.1.4.1.22812.11.2016.163.1_14168"/>
            </identifier>
            <status value="completed"/>
            <vaccineCode>
               <coding>
                  <system value="urn:oid:2.16.840.1.113883.12.292"/>
                  <code value="24"/>
                  <display value="anthrax vaccine"/>
               </coding>
            </vaccineCode>
            <patient>
               <reference value="urn:uuid:6b0c9adc-a12b-11ef-d133-09173f13e4c5"/>
            </patient>
            <occurrenceDateTime value="2020-11-07"/>
            <!--INFO: Defaulting primarySource to false since this info is not in the C-CDA Immunization Activity template-->
            <primarySource value="false"/>
            <route>
               <coding>
                  <extension url="http://hl7.org/fhir/StructureDefinition/data-absent-reason">
                     <valueCode value="unknown"/>
                  </extension>
               </coding>
            </route>
         </Immunization>
      </resource>
   </entry>
   <entry>
      <fullUrl value="urn:uuid:6b20b755-a12b-11ef-d133-09173f13e4c5"/>
      <resource><!--Processing as generic observation: 2.16.840.1.113883.10.20.15.2.3.55:-->
         <Observation>
            <meta>
               <profile value="http://hl7.org/fhir/us/ecr/StructureDefinition/eicr-vaccine-credential-patient-assertion"/>
               <!--CDA templateId: urn:hl7ii:2.16.840.1.113883.10.20.15.2.3.55:2021-01-01-->
            </meta>
            <identifier>
               <system value="urn:ietf:rfc:3986"/>
               <value value="urn:uuid:3adc7f4d-ff0a-4b38-9252-bd65edbe3dff"/>
            </identifier>
            <status value="final"/>
            <code>
               <coding>
                  <system value="http://loinc.org"/>
                  <code value="11370-4"/>
                  <display value="Immunization status - Reported"/>
               </coding>
            </code>
            <subject>
               <reference value="urn:uuid:6b0c9adc-a12b-11ef-d133-09173f13e4c5"/>
            </subject>
            <effectiveDateTime value="2020-11-07"/>
            <!--INFO: Using document effective time as issued date-->
            <issued value="2020-11-07T09:44:21.000-05:00"/>
            <valueCodeableConcept>
               <coding>
                  <system value="http://terminology.hl7.org/CodeSystem/v2-0532"/>
                  <code value="Y"/>
                  <display value="Yes"/>
               </coding>
            </valueCodeableConcept>
         </Observation>
      </resource>
   </entry>
   <entry>
      <fullUrl value="urn:uuid:6b20b7ff-a12b-11ef-d133-09173f13e4c5"/>
      <resource><!--Characteristics of Home Environment-->
         <Observation>
            <meta>
               <profile value="http://hl7.org/fhir/us/ecr/StructureDefinition/us-ph-characteristics-of-home-environment"/>
               <!--CDA templateId: urn:hl7ii:2.16.840.1.113883.10.20.22.4.109-->
            </meta>
            <identifier>
               <system value="urn:ietf:rfc:3986"/>
               <value value="urn:uuid:37f76c51-6411-4e1d-8a37-957fd49d2ced"/>
            </identifier>
            <status value="final"/>
            <code>
               <coding>
                  <system value="http://loinc.org"/>
                  <code value="75274-1"/>
                  <display value="Characteristics of residence"/>
               </coding>
            </code>
            <subject>
               <reference value="urn:uuid:6b0c9adc-a12b-11ef-d133-09173f13e4c5"/>
            </subject>
            <effectiveDateTime value="2020-11-09"/>
            <valueCodeableConcept>
               <coding>
                  <system value="http://snomed.info/sct"/>
                  <code value="32911000"/>
                  <display value="Homeless (finding)"/>
               </coding>
            </valueCodeableConcept>
         </Observation>
      </resource>
   </entry>
   <entry>
      <fullUrl value="urn:uuid:6b20b809-a12b-11ef-d133-09173f13e4c5"/>
      <resource><!--Exposure/Contact Information Observation-->
         <Observation>
            <meta>
               <profile value="http://hl7.org/fhir/us/ecr/StructureDefinition/us-ph-exposure-contact-information"/>
               <!--CDA templateId: urn:hl7ii:2.16.840.1.113883.10.20.15.2.3.52:2021-01-01-->
            </meta>
            <identifier>
               <system value="urn:ietf:rfc:3986"/>
               <value value="urn:uuid:5f2e0ab0-b505-438a-9d50-f22d78ad1567"/>
            </identifier>
            <status value="final"/>
            <category>
               <coding>
                  <system value="http://terminology.hl7.org/CodeSystem/v3-ActClass"/>
                  <code value="EXPOS"/>
                  <display value="exposure"/>
               </coding>
               <text value="An interaction between entities that provides opportunity for transmission of a physical, chemical, or biological agent from an exposure source entity to an exposure target entity."/>
            </category>
            <code>
               <coding>
                  <system value="http://loinc.org"/>
                  <code value="C3841750"/>
                  <display value="Mass gathering"/>
               </coding>
               <text value="Football game"/>
            </code>
            <subject>
               <reference value="urn:uuid:6b0c9adc-a12b-11ef-d133-09173f13e4c5"/>
            </subject>
            <focus>
               <reference value="urn:uuid:6b20b815-a12b-11ef-d133-09173f13e4c5"/>
            </focus>
            <effectivePeriod>
               <start value="2020-11-10T18:00:00+05:30"/>
               <end value="2020-11-10T21:30:00+05:30"/>
            </effectivePeriod>
         </Observation>
      </resource>
   </entry>
   <entry>
      <fullUrl value="urn:uuid:6b20b815-a12b-11ef-d133-09173f13e4c5"/>
      <resource>
         <Location>
            <meta>
               <profile value="http://hl7.org/fhir/us/core/StructureDefinition/us-core-location"/>
               <!--CDA templateId: urn:hl7ii:2.16.840.1.113883.10.20.15.2.4.4:2021-01-01-->
            </meta>
            <name value="City Football Stadium"/>
            <address>
               <line value="99 Football Stadium Road"/>
               <city value="My City"/>
               <state value="AZ"/>
               <postalCode value="8562"/>
               <country value="US"/>
            </address>
         </Location>
      </resource>
   </entry>
   <entry>
      <fullUrl value="urn:uuid:6b20b821-a12b-11ef-d133-09173f13e4c5"/>
      <resource><!--Exposure/Contact Information Observation-->
         <Observation>
            <meta>
               <profile value="http://hl7.org/fhir/us/ecr/StructureDefinition/us-ph-exposure-contact-information"/>
               <!--CDA templateId: urn:hl7ii:2.16.840.1.113883.10.20.15.2.3.52:2021-01-01-->
            </meta>
            <identifier>
               <system value="urn:ietf:rfc:3986"/>
               <value value="urn:uuid:a78adeed-d623-49cb-95df-42a0a2c33fca"/>
            </identifier>
            <status value="final"/>
            <category>
               <coding>
                  <system value="http://terminology.hl7.org/CodeSystem/v3-ActClass"/>
                  <code value="EXPOS"/>
                  <display value="exposure"/>
               </coding>
               <text value="An interaction between entities that provides opportunity for transmission of a physical, chemical, or biological agent from an exposure source entity to an exposure target entity."/>
            </category>
            <code>
               <coding>
                  <system value="urn:oid:2.16.840.1.114222.4.5.274"/>
                  <code value="PHC2266"/>
                  <display value="Animal with confirmed or suspected case"/>
               </coding>
            </code>
            <subject>
               <reference value="urn:uuid:6b0c9adc-a12b-11ef-d133-09173f13e4c5"/>
            </subject>
            <focus>
               <reference value="urn:uuid:6b20b82a-a12b-11ef-d133-09173f13e4c5"/>
            </focus>
            <effectivePeriod>
               <start value="2020-11-09"/>
               <end value="2020-11-13"/>
            </effectivePeriod>
         </Observation>
      </resource>
   </entry>
   <entry>
      <fullUrl value="urn:uuid:6b20b82a-a12b-11ef-d133-09173f13e4c5"/>
      <resource>
         <RelatedPerson><!--cda:participant (Animal Participant)-->
            <extension url="http://hl7.org/fhir/StructureDefinition/practitioner-animalSpecies">
               <valueCodeableConcept>
                  <coding>
                     <system value="http://snomed.info/sct"/>
                     <code value="35794008"/>
                     <display value="Wild mink (organism)"/>
                  </coding>
               </valueCodeableConcept>
            </extension>
            <patient>
               <reference value="urn:uuid:6b0c9adc-a12b-11ef-d133-09173f13e4c5"/>
            </patient>
            <name>
               <text value="Wild mink (organism)"/>
            </name>
         </RelatedPerson>
      </resource>
   </entry>
   <entry>
      <fullUrl value="urn:uuid:6b20b833-a12b-11ef-d133-09173f13e4c5"/>
      <resource><!--Exposure/Contact Information Observation-->
         <Observation>
            <meta>
               <profile value="http://hl7.org/fhir/us/ecr/StructureDefinition/us-ph-exposure-contact-information"/>
               <!--CDA templateId: urn:hl7ii:2.16.840.1.113883.10.20.15.2.3.52:2021-01-01-->
            </meta>
            <identifier>
               <system value="urn:ietf:rfc:3986"/>
               <value value="urn:uuid:a78adeed-d623-49cb-95df-42a0a2c33fca"/>
            </identifier>
            <status value="final"/>
            <category>
               <coding>
                  <system value="http://terminology.hl7.org/CodeSystem/v3-ActClass"/>
                  <code value="EXPOS"/>
                  <display value="exposure"/>
               </coding>
               <text value="An interaction between entities that provides opportunity for transmission of a physical, chemical, or biological agent from an exposure source entity to an exposure target entity."/>
            </category>
            <code>
               <coding>
                  <system value="urn:oid:2.16.840.1.114222.4.5.274"/>
                  <code value="PHC2267"/>
                  <display value="Contact with known case"/>
               </coding>
            </code>
            <subject>
               <reference value="urn:uuid:6b0c9adc-a12b-11ef-d133-09173f13e4c5"/>
            </subject>
            <focus>
               <reference value="urn:uuid:6b20b83c-a12b-11ef-d133-09173f13e4c5"/>
            </focus>
            <effectivePeriod>
               <start value="2020-11-09"/>
               <end value="2020-11-13"/>
            </effectivePeriod>
            <component>
               <code>
                  <coding>
                     <system value="http://terminology.hl7.org/CodeSystem/v3-ParticipationType"/>
                     <code value="EXPAGNT"/>
                     <display value="ExposureAgent"/>
                  </coding>
               </code>
               <valueCodeableConcept>
                  <coding>
                     <system value="http://snomed.info/sct"/>
                     <code value="840533007"/>
                     <display value="Severe acute respiratory syndrome coronavirus 2 (organism)"/>
                  </coding>
               </valueCodeableConcept>
            </component>
         </Observation>
      </resource>
   </entry>
   <entry>
      <fullUrl value="urn:uuid:6b20b83c-a12b-11ef-d133-09173f13e4c5"/>
      <resource>
         <RelatedPerson><!--cda:participant (Person Participant)-->
            <patient>
               <reference value="urn:uuid:6b0c9adc-a12b-11ef-d133-09173f13e4c5"/>
            </patient>
            <name>
               <use value="usual"/>
               <family value="Everyman"/>
               <given value="Adam"/>
            </name>
         </RelatedPerson>
      </resource>
   </entry>
   <entry>
      <fullUrl value="urn:uuid:6b20b84c-a12b-11ef-d133-09173f13e4c5"/>
      <resource><!--Travel History-->
         <Observation>
            <meta>
               <profile value="http://hl7.org/fhir/us/ecr/StructureDefinition/us-ph-travel-history"/>
               <!--CDA templateId: urn:hl7ii:2.16.840.1.113883.10.20.15.2.3.1:2022-05-01-->
            </meta>
            <identifier>
               <system value="urn:ietf:rfc:3986"/>
               <value value="urn:uuid:79565142-eae0-4213-a3b3-b73cdf474682"/>
            </identifier>
            <status value="final"/>
            <code>
               <coding>
                  <system value="http://snomed.info/sct"/>
                  <code value="420008001"/>
                  <display value="Travel"/>
               </coding>
            </code>
            <subject>
               <reference value="urn:uuid:6b0c9adc-a12b-11ef-d133-09173f13e4c5"/>
            </subject>
            <effectivePeriod>
               <start value="1999"/>
               <end value="2007"/>
            </effectivePeriod>
            <component>
               <code>
                  <coding>
                     <system value="http://terminology.hl7.org/CodeSystem/v3-ParticipationType"/>
                     <code value="LOC"/>
                     <display value="Location"/>
                  </coding>
               </code>
               <valueCodeableConcept>
                  <text value="Spent 8 years in the UK during the BSE outbreak"/>
               </valueCodeableConcept>
            </component>
         </Observation>
      </resource>
   </entry>
   <entry>
      <fullUrl value="urn:uuid:6b20b859-a12b-11ef-d133-09173f13e4c5"/>
      <resource><!--Travel History-->
         <Observation>
            <meta>
               <profile value="http://hl7.org/fhir/us/ecr/StructureDefinition/us-ph-travel-history"/>
               <!--CDA templateId: urn:hl7ii:2.16.840.1.113883.10.20.15.2.3.1:2022-05-01-->
            </meta>
            <identifier>
               <system value="urn:ietf:rfc:3986"/>
               <value value="urn:uuid:030df1dc-1d31-4e5d-abdd-5edd0b74c5c3"/>
            </identifier>
            <status value="final"/>
            <code>
               <coding>
                  <system value="http://snomed.info/sct"/>
                  <code value="420008001"/>
                  <display value="Travel"/>
               </coding>
            </code>
            <subject>
               <reference value="urn:uuid:6b0c9adc-a12b-11ef-d133-09173f13e4c5"/>
            </subject>
            <effectivePeriod>
               <start value="2020-10-19"/>
               <end value="2020-11-09"/>
            </effectivePeriod>
            <component>
               <code>
                  <coding>
                     <system value="http://terminology.hl7.org/CodeSystem/v3-ParticipationType"/>
                     <code value="LOC"/>
                     <display value="Location"/>
                  </coding>
               </code>
               <valueCodeableConcept>
                  <coding>
                     <system value="urn:iso:std:iso:3166"/>
                     <code value="BRA"/>
                     <display value="Brazil"/>
                  </coding>
               </valueCodeableConcept>
            </component>
         </Observation>
      </resource>
   </entry>
   <entry>
      <fullUrl value="urn:uuid:6b20b869-a12b-11ef-d133-09173f13e4c5"/>
      <resource><!--Travel History-->
         <Observation>
            <meta>
               <profile value="http://hl7.org/fhir/us/ecr/StructureDefinition/us-ph-travel-history"/>
               <!--CDA templateId: urn:hl7ii:2.16.840.1.113883.10.20.15.2.3.1:2022-05-01-->
            </meta>
            <identifier>
               <system value="urn:ietf:rfc:3986"/>
               <value value="urn:uuid:b98e410c-d29a-46d8-8fc8-f55a9d3022b9"/>
            </identifier>
            <status value="final"/>
            <code>
               <coding>
                  <system value="http://snomed.info/sct"/>
                  <code value="420008001"/>
                  <display value="Travel"/>
               </coding>
            </code>
            <subject>
               <reference value="urn:uuid:6b0c9adc-a12b-11ef-d133-09173f13e4c5"/>
            </subject>
            <effectivePeriod>
               <start value="2020-04-25"/>
               <end value="2020-04-30"/>
            </effectivePeriod>
            <component><!--Travel History Address Extension-->
               <extension url="http://hl7.org/fhir/us/ecr/StructureDefinition/us-ph-address-extension">
                  <valueAddress>
                     <city value="Nadi"/>
                     <country value="FJ"/>
                  </valueAddress>
               </extension>
               <code>
                  <coding>
                     <system value="http://terminology.hl7.org/CodeSystem/v3-ParticipationType"/>
                     <code value="LOC"/>
                     <display value="Location"/>
                  </coding>
               </code>
            </component>
            <component>
               <code>
                  <coding>
                     <system value="http://snomed.info/sct"/>
                     <code value="280147009"/>
                     <display value="Type of activity"/>
                  </coding>
               </code>
               <valueCodeableConcept>
                  <coding>
                     <system value="http://terminology.hl7.org/CodeSystem/umls"/>
                     <code value="C0683587"/>
                     <display value="tourism"/>
                  </coding>
               </valueCodeableConcept>
            </component>
         </Observation>
      </resource>
   </entry>
   <entry>
      <fullUrl value="urn:uuid:6b20b882-a12b-11ef-d133-09173f13e4c5"/>
      <resource>
         <Observation>
            <meta>
               <profile value="http://hl7.org/fhir/us/ecr/StructureDefinition/us-ph-transportation-details"/>
               <!--CDA templateId: urn:hl7ii:2.16.840.1.113883.10.20.15.2.3.50:2021-01-01-->
            </meta>
            <identifier>
               <system value="urn:ietf:rfc:3986"/>
               <value value="urn:uuid:afd5c96f-9289-4796-b8fa-faa50ac113ff"/>
            </identifier>
            <status value="final"/>
            <category>
               <coding>
                  <system value="http://terminology.hl7.org/CodeSystem/v3-ActClass"/>
                  <code value="TRNS"/>
                  <display value="Transportation"/>
               </coding>
               <text value="Transportation"/>
            </category>
            <code>
               <coding>
                  <system value="http://snomed.info/sct"/>
                  <code value="424483007"/>
                  <display value="Transportation details (observable entity)"/>
               </coding>
            </code>
            <subject>
               <reference value="urn:uuid:6b0c9adc-a12b-11ef-d133-09173f13e4c5"/>
            </subject>
            <effectivePeriod>
               <start value="2020-04-25"/>
               <end value="2020-05-15"/>
            </effectivePeriod>
            <valueCodeableConcept>
               <coding>
                  <system value="http://loinc.org"/>
                  <code value="21812002"/>
                  <display value="Ocean liner, device (physical object)"/>
               </coding>
            </valueCodeableConcept>
            <component>
               <code>
                  <coding>
                     <extension url="http://hl7.org/fhir/StructureDefinition/data-absent-reason">
                        <valueCode value="unknown"/>
                     </extension>
                  </coding>
                  <text value="Ship Name"/>
               </code>
               <valueString value="Princess of the Sea"/>
            </component>
            <component>
               <code>
                  <coding>
                     <extension url="http://hl7.org/fhir/StructureDefinition/data-absent-reason">
                        <valueCode value="unknown"/>
                     </extension>
                  </coding>
                  <text value="Cabin Number"/>
               </code>
               <valueString value="69B"/>
            </component>
         </Observation>
      </resource>
   </entry>
   <entry>
      <fullUrl value="urn:uuid:6b20b8a8-a12b-11ef-d133-09173f13e4c5"/>
      <resource><!--Travel History-->
         <Observation>
            <meta>
               <profile value="http://hl7.org/fhir/us/ecr/StructureDefinition/us-ph-travel-history"/>
               <!--CDA templateId: urn:hl7ii:2.16.840.1.113883.10.20.15.2.3.1:2022-05-01-->
            </meta>
            <identifier>
               <system value="urn:ietf:rfc:3986"/>
               <value value="urn:uuid:b97346f7-8f9e-4c5b-97bb-df4f6e057fd4"/>
            </identifier>
            <status value="final"/>
            <code>
               <coding>
                  <system value="http://snomed.info/sct"/>
                  <code value="420008001"/>
                  <display value="Travel"/>
               </coding>
            </code>
            <subject>
               <reference value="urn:uuid:6b0c9adc-a12b-11ef-d133-09173f13e4c5"/>
            </subject>
            <effectivePeriod>
               <start value="2020-05-06"/>
               <end value="2020-05-15"/>
            </effectivePeriod>
            <component><!--Travel History Address Extension-->
               <extension url="http://hl7.org/fhir/us/ecr/StructureDefinition/us-ph-address-extension">
                  <valueAddress>
                     <city value="Montreal"/>
                     <state value="QC"/>
                     <country value="CA"/>
                  </valueAddress>
               </extension>
               <code>
                  <coding>
                     <system value="http://terminology.hl7.org/CodeSystem/v3-ParticipationType"/>
                     <code value="LOC"/>
                     <display value="Location"/>
                  </coding>
               </code>
            </component>
         </Observation>
      </resource>
   </entry>
   <entry>
      <fullUrl value="urn:uuid:6b20b8ba-a12b-11ef-d133-09173f13e4c5"/>
      <resource><!--Travel History-->
         <Observation>
            <meta>
               <profile value="http://hl7.org/fhir/us/ecr/StructureDefinition/us-ph-travel-history"/>
               <!--CDA templateId: urn:hl7ii:2.16.840.1.113883.10.20.15.2.3.1:2021-01-01-->
            </meta>
            <identifier>
               <system value="urn:ietf:rfc:3986"/>
               <value value="urn:uuid:1d957c2a-6133-427d-a6cc-26f132773b86"/>
            </identifier>
            <status value="final"/>
            <code>
               <coding>
                  <system value="http://snomed.info/sct"/>
                  <code value="420008001"/>
                  <display value="Travel"/>
               </coding>
            </code>
            <subject>
               <reference value="urn:uuid:6b0c9adc-a12b-11ef-d133-09173f13e4c5"/>
            </subject>
            <effectivePeriod>
               <start value="2020-07-13"/>
               <end value="2020-07-15"/>
            </effectivePeriod>
            <component><!--Travel History Address Extension-->
               <extension url="http://hl7.org/fhir/us/ecr/StructureDefinition/us-ph-address-extension">
                  <valueAddress>
                     <city value="Sydney"/>
                     <state value="NSW"/>
                     <country value="AU"/>
                  </valueAddress>
               </extension>
               <code>
                  <coding>
                     <system value="http://terminology.hl7.org/CodeSystem/v3-ParticipationType"/>
                     <code value="LOC"/>
                     <display value="Location"/>
                  </coding>
               </code>
            </component>
         </Observation>
      </resource>
   </entry>
   <entry>
      <fullUrl value="urn:uuid:6b20b8cb-a12b-11ef-d133-09173f13e4c5"/>
      <resource><!--Travel History-->
         <Observation>
            <meta>
               <profile value="http://hl7.org/fhir/us/ecr/StructureDefinition/us-ph-travel-history"/>
               <!--CDA templateId: urn:hl7ii:2.16.840.1.113883.10.20.15.2.3.1:2021-01-01-->
            </meta>
            <identifier>
               <system value="urn:ietf:rfc:3986"/>
               <value value="urn:uuid:45397b5c-e974-4cf1-8b19-e1555bd55701"/>
            </identifier>
            <status value="final"/>
            <code>
               <coding>
                  <system value="http://snomed.info/sct"/>
                  <code value="420008001"/>
                  <display value="Travel"/>
               </coding>
            </code>
            <subject>
               <reference value="urn:uuid:6b0c9adc-a12b-11ef-d133-09173f13e4c5"/>
            </subject>
            <effectivePeriod>
               <start value="2020-10-22"/>
               <end value="2020-10-30"/>
            </effectivePeriod>
            <component><!--Travel History Address Extension-->
               <extension url="http://hl7.org/fhir/us/ecr/StructureDefinition/us-ph-address-extension">
                  <valueAddress>
                     <line value="1170 N Rancho Robles Rd"/>
                     <city value="Oracle"/>
                     <state value="AZ"/>
                     <postalCode value="8562"/>
                     <country value="US"/>
                  </valueAddress>
               </extension>
               <code>
                  <coding>
                     <system value="http://terminology.hl7.org/CodeSystem/v3-ParticipationType"/>
                     <code value="LOC"/>
                     <display value="Location"/>
                  </coding>
               </code>
            </component>
         </Observation>
      </resource>
   </entry>
   <entry>
      <fullUrl value="urn:uuid:6b20b8dd-a12b-11ef-d133-09173f13e4c5"/>
      <resource><!--Processing as generic observation: 2.16.840.1.113883.10.20.15.2.3.53:-->
         <Observation>
            <meta>
               <profile value="http://hl7.org/fhir/us/ecr/StructureDefinition/eicr-country-of-residence"/>
               <!--CDA templateId: urn:hl7ii:2.16.840.1.113883.10.20.15.2.3.53:2021-01-01-->
            </meta>
            <identifier>
               <system value="urn:ietf:rfc:3986"/>
               <value value="urn:uuid:3adc7f4d-ff0a-4b38-9252-bd65edbe3dfg"/>
            </identifier>
            <status value="final"/>
            <category>
               <coding>
                  <system value="http://terminology.hl7.org/CodeSystem/observation-category"/>
                  <code value="social-history"/>
                  <display value="Social History"/>
               </coding>
            </category>
            <code>
               <coding>
                  <system value="http://loinc.org"/>
                  <code value="77983-5"/>
                  <display value="Country of usual residence"/>
               </coding>
            </code>
            <subject>
               <reference value="urn:uuid:6b0c9adc-a12b-11ef-d133-09173f13e4c5"/>
            </subject>
            <!--INFO: Using document effective time as issued date-->
            <issued value="2020-11-07T09:44:21.000-05:00"/>
            <valueCodeableConcept>
               <coding>
                  <system value="urn:iso:std:iso:3166"/>
                  <code value="GB"/>
                  <display value="United Kingdom of Great Britain and Northern Ireland"/>
               </coding>
            </valueCodeableConcept>
         </Observation>
      </resource>
   </entry>
   <entry>
      <fullUrl value="urn:uuid:6b20b8e6-a12b-11ef-d133-09173f13e4c5"/>
      <resource><!--Processing as generic observation: 2.16.840.1.113883.10.20.15.2.3.54:-->
         <Observation>
            <meta>
               <profile value="http://hl7.org/fhir/us/ecr/StructureDefinition/eicr-country-of-nationality"/>
               <!--CDA templateId: urn:hl7ii:2.16.840.1.113883.10.20.15.2.3.54:2021-01-01-->
            </meta>
            <identifier>
               <system value="urn:ietf:rfc:3986"/>
               <value value="urn:uuid:3adc7f4d-ff0a-4b38-9252-bd65edbe3dfa"/>
            </identifier>
            <status value="final"/>
            <category>
               <coding>
                  <system value="http://terminology.hl7.org/CodeSystem/observation-category"/>
                  <code value="social-history"/>
                  <display value="Social History"/>
               </coding>
            </category>
            <code>
               <coding>
                  <system value="http://snomed.info/sct"/>
                  <code value="186034007"/>
                  <display value="Ethnicity / related nationality data (observable entity)"/>
               </coding>
            </code>
            <subject>
               <reference value="urn:uuid:6b0c9adc-a12b-11ef-d133-09173f13e4c5"/>
            </subject>
            <!--INFO: Using document effective time as issued date-->
            <issued value="2020-11-07T09:44:21.000-05:00"/>
            <valueCodeableConcept>
               <coding>
                  <system value="urn:iso:std:iso:3166"/>
                  <code value="AU"/>
                  <display value="Australia"/>
               </coding>
            </valueCodeableConcept>
         </Observation>
      </resource>
   </entry>
   <entry>
      <fullUrl value="urn:uuid:6b20b8ee-a12b-11ef-d133-09173f13e4c5"/>
      <resource><!--Processing as generic observation: 2.16.840.1.113883.10.20.15.2.3.47:-->
         <Observation>
            <meta>
               <profile value="http://hl7.org/fhir/us/ecr/StructureDefinition/us-ph-disability-status"/>
               <!--CDA templateId: urn:hl7ii:2.16.840.1.113883.10.20.15.2.3.47:2021-01-01-->
            </meta>
            <identifier>
               <system value="urn:ietf:rfc:3986"/>
               <value value="urn:uuid:c09ac074-605e-47bd-8b1c-735e7321fbc2"/>
            </identifier>
            <status value="final"/>
            <category>
               <coding>
                  <system value="http://terminology.hl7.org/CodeSystem/observation-category"/>
                  <code value="social-history"/>
                  <display value="Social History"/>
               </coding>
            </category>
            <code>
               <coding>
                  <system value="http://loinc.org"/>
                  <code value="69856-3"/>
                  <display value="Are you deaf, or do you have serious difficulty hearing"/>
               </coding>
            </code>
            <subject>
               <reference value="urn:uuid:6b0c9adc-a12b-11ef-d133-09173f13e4c5"/>
            </subject>
            <effectiveDateTime value="2020-11-09"/>
            <!--INFO: Using document effective time as issued date-->
            <issued value="2020-11-07T09:44:21.000-05:00"/>
            <valueBoolean value="true"/>
         </Observation>
      </resource>
   </entry>
   <entry>
      <fullUrl value="urn:uuid:6b20b904-a12b-11ef-d133-09173f13e4c5"/>
      <resource><!--ODH Usual Work-->
         <Observation>
            <meta>
               <profile value="http://hl7.org/fhir/us/odh/StructureDefinition/odh-UsualWork"/>
               <!--CDA templateId: urn:hl7ii:2.16.840.1.113883.10.20.22.4.221:2020-09-01-->
            </meta>
            <identifier>
               <system value="urn:ietf:rfc:3986"/>
               <value value="urn:uuid:4f4b3876-8570-41a0-b995-cf34f37c5cbf"/>
            </identifier>
            <status value="final"/>
            <category>
               <coding>
                  <system value="http://terminology.hl7.org/CodeSystem/observation-category"/>
                  <code value="social-history"/>
                  <display value="Social History"/>
               </coding>
            </category>
            <code>
               <coding>
                  <system value="http://loinc.org"/>
                  <code value="21843-8"/>
                  <display value="History of Usual occupation"/>
               </coding>
            </code>
            <subject>
               <reference value="urn:uuid:6b0c9adc-a12b-11ef-d133-09173f13e4c5"/>
            </subject>
            <effectivePeriod>
               <start value="1996-11-24"/>
            </effectivePeriod>
            <valueCodeableConcept>
               <coding>
                  <system value="urn:oid:2.16.840.1.113883.6.240"/>
                  <code value="3600"/>
                  <display value="Nursing, psychiatric, and home health aides"/>
               </coding>
               <coding>
                  <system value="urn:oid:2.16.840.1.114222.4.5.327"/>
                  <code value="31-1014.00.007136"/>
                  <display value="Certified Nursing Assistant (CNA) [Nursing Assistants]"/>
               </coding>
            </valueCodeableConcept>
            <component><!---->
               <code>
                  <coding>
                     <system value="http://loinc.org"/>
                     <code value="21844-6"/>
                     <display value="History of Usual industry"/>
                  </coding>
               </code>
               <valueCodeableConcept>
                  <coding>
                     <system value="urn:oid:2.16.840.1.114222.4.5.315"/>
                     <code value="8270"/>
                     <display value="Nursing care facilities"/>
                  </coding>
                  <coding>
                     <system value="urn:oid:2.16.840.1.114222.4.5.327"/>
                     <code value="621610.008495"/>
                     <display value="Home nursing services"/>
                  </coding>
               </valueCodeableConcept>
            </component>
         </Observation>
      </resource>
   </entry>
   <entry>
      <fullUrl value="urn:uuid:6b20b92d-a12b-11ef-d133-09173f13e4c5"/>
      <resource>
         <Organization>
            <meta>
               <profile value="http://hl7.org/fhir/us/ecr/StructureDefinition/us-ph-organization"/>
            </meta>
            <identifier>
               <system value="urn:uuid:58822180-ab0d-42e4-90c6-35336bf55654"/>
               <value value="12345"/>
            </identifier>
            <active value="true"/>
            <name value="University Hospital"/>
            <telecom>
               <system value="phone"/>
               <value value="555-1212"/>
               <use value="work"/>
            </telecom>
            <address>
               <line value="Peachtree St"/>
               <city value="Atlanta"/>
               <state value="Georgia"/>
            </address>
         </Organization>
      </resource>
   </entry>
   <entry>
      <fullUrl value="urn:uuid:6b20b91e-a12b-11ef-d133-09173f13e4c5"/>
      <resource><!--ODH Past or Present Job-->
         <Observation><!--ODH Employer Extension-->
            <extension url="http://hl7.org/fhir/us/odh/StructureDefinition/odh-Employer-extension">
               <valueReference>
                  <reference value="urn:uuid:6b20b92d-a12b-11ef-d133-09173f13e4c5"/>
               </valueReference>
            </extension>
            <identifier>
               <system value="urn:ietf:rfc:3986"/>
               <value value="urn:uuid:1728123a-7b6c-418c-adc2-f78417caf62c"/>
            </identifier>
            <status value="final"/>
            <code>
               <coding>
                  <system value="http://loinc.org"/>
                  <code value="11341-5"/>
                  <display value="History of Occupation"/>
               </coding>
            </code>
            <subject>
               <reference value="urn:uuid:6b0c9adc-a12b-11ef-d133-09173f13e4c5"/>
            </subject>
            <effectivePeriod>
               <start value="2015-04-24"/>
            </effectivePeriod>
            <valueCodeableConcept>
               <coding>
                  <system value="urn:oid:2.16.840.1.113883.6.240"/>
                  <code value="3600"/>
                  <display value="Nursing, psychiatric, and home health aides"/>
               </coding>
               <coding>
                  <system value="urn:oid:2.16.840.1.114222.4.5.327"/>
                  <code value="31-1014.00.007136"/>
                  <display value="Certified Nursing Assistant (CNA) [Nursing Assistants]"/>
               </coding>
            </valueCodeableConcept>
            <note>
               <text value="Nurse"/>
            </note>
            <component><!--Observation.component: odh-OccupationalHazard-->
               <code>
                  <coding>
                     <system value="http://loinc.org"/>
                     <code value="87729-0"/>
                     <display value="History of Occupational hazard"/>
                  </coding>
               </code>
               <valueString value="Asbestos"/>
            </component>
            <component><!---->
               <code>
                  <coding>
                     <system value="http://loinc.org"/>
                     <code value="86188-0"/>
                     <display value="History of Occupation industry"/>
                  </coding>
               </code>
               <valueCodeableConcept>
                  <coding>
                     <system value="urn:oid:2.16.840.1.114222.4.5.315"/>
                     <code value="8270"/>
                     <display value="Nursing care facilities"/>
                  </coding>
                  <coding>
                     <system value="urn:oid:2.16.840.1.114222.4.5.327"/>
                     <code value="621610.008495"/>
                     <display value="Home nursing services"/>
                  </coding>
               </valueCodeableConcept>
            </component>
         </Observation>
      </resource>
   </entry>
   <entry>
      <fullUrl value="urn:uuid:6b20b952-a12b-11ef-d133-09173f13e4c5"/>
      <resource><!--ODH History of Employment Status-->
         <Observation>
            <meta>
               <profile value="http://hl7.org/fhir/us/odh/StructureDefinition/odh-EmploymentStatus"/>
               <!--CDA templateId: urn:hl7ii:2.16.840.1.113883.10.20.22.4.212:2017-11-30-->
            </meta>
            <identifier>
               <system value="urn:ietf:rfc:3986"/>
               <value value="urn:uuid:c1e39467-4b79-474e-9c75-927b45e8616a"/>
            </identifier>
            <status value="final"/>
            <category>
               <coding>
                  <system value="http://terminology.hl7.org/CodeSystem/observation-category"/>
                  <code value="social-history"/>
                  <display value="Social History"/>
               </coding>
            </category>
            <code>
               <coding>
                  <system value="http://loinc.org"/>
                  <code value="74165-2"/>
                  <display value="History of employment status NIOSH"/>
               </coding>
            </code>
            <subject>
               <reference value="urn:uuid:6b0c9adc-a12b-11ef-d133-09173f13e4c5"/>
            </subject>
            <effectivePeriod>
               <start value="2017-01-16T15:47:00+05:30"/>
            </effectivePeriod>
            <valueCodeableConcept>
               <coding>
                  <system value="http://terminology.hl7.org/CodeSystem/v3-ObservationValue"/>
                  <code value="Employed"/>
                  <display value="Employed"/>
               </coding>
            </valueCodeableConcept>
         </Observation>
      </resource>
   </entry>
   <entry>
      <fullUrl value="urn:uuid:6b20b9c5-a12b-11ef-d133-09173f13e4c5"/>
      <resource><!--Pregnancy Status Observation-->
         <Observation>
            <meta>
               <profile value="http://hl7.org/fhir/us/ecr/StructureDefinition/us-ph-pregnancy-status-observation"/>
               <!--CDA templateId: urn:hl7ii:2.16.840.1.113883.10.20.22.4.293:2020-04-01-->
            </meta>
            <!--Pregnancy Status Recorded Date-->
            <!--Date Recorded Extension-->
            <extension url="http://hl7.org/fhir/us/ecr/StructureDefinition/us-ph-date-recorded-extension">
               <valueDateTime value="2017-10-01T10:35:00+05:30"/>
            </extension>
            <!--Pregnancy Status Determination Date-->
            <!--Date Determined Extension-->
            <extension url="http://hl7.org/fhir/us/ecr/StructureDefinition/us-ph-date-determined-extension">
               <valueDateTime value="2017-10-01"/>
            </extension>
            <identifier>
               <system value="urn:ietf:rfc:3986"/>
               <value value="urn:uuid:bab77407-f76d-4a51-a2ed-980c8a59fe28"/>
            </identifier>
            <status value="final"/>
            <code>
               <coding>
                  <system value="http://loinc.org"/>
                  <code value="82810-3"/>
                  <display value="Pregnancy Status"/>
               </coding>
            </code>
            <subject>
               <reference value="urn:uuid:6b0c9adc-a12b-11ef-d133-09173f13e4c5"/>
            </subject>
            <effectivePeriod>
               <start value="2017-08-26"/>
            </effectivePeriod>
            <performer>
               <reference value="urn:uuid:6b20b9d8-a12b-11ef-d133-09173f13e4c5"/>
            </performer>
            <valueCodeableConcept>
               <coding>
                  <system value="http://snomed.info/sct"/>
                  <code value="77386006"/>
                  <display value="Pregnant"/>
               </coding>
            </valueCodeableConcept>
            <method>
               <coding>
                  <system value="http://snomed.info/sct"/>
                  <code value="16310003"/>
                  <display value="Ultrasonography (procedure)"/>
               </coding>
            </method>
            <component><!----><!--Date Determined Extension-->
               <extension url="http://hl7.org/fhir/us/ecr/StructureDefinition/us-ph-date-determined-extension">
                  <valueDateTime value="2017-10-01T10:15:00+05:30"/>
               </extension>
               <code>
                  <coding>
                     <system value="http://loinc.org"/>
                     <code value="11780-4"/>
                     <display value="Delivery date estimated from ovulation date"/>
                  </coding>
               </code>
               <valueDateTime value="2017-05-22"/>
            </component>
            <component><!----><!--Date Determined Extension-->
               <extension url="http://hl7.org/fhir/us/ecr/StructureDefinition/us-ph-date-determined-extension">
                  <valueDateTime value="2017-10-01T10:15:00+05:30"/>
               </extension>
               <code>
                  <coding>
                     <system value="http://loinc.org"/>
                     <code value="11887-7"/>
                     <display value="Gestational age Estimated from selected delivery date"/>
                  </coding>
               </code>
               <valueQuantity>
                  <value value="143"/>
                  <unit value="d"/>
               </valueQuantity>
            </component>
         </Observation>
      </resource>
   </entry>
   <entry>
      <fullUrl value="urn:uuid:6b20ba07-a12b-11ef-d133-09173f13e4c5"/>
      <resource><!--Pregnancy Outcome Observation-->
         <Observation>
            <meta>
               <profile value="http://hl7.org/fhir/us/ecr/StructureDefinition/us-ph-pregnancy-outcome-observation"/>
               <!--CDA templateId: urn:hl7ii:2.16.840.1.113883.10.20.22.4.284:2020-04-01-->
            </meta>
            <identifier>
               <system value="urn:ietf:rfc:3986"/>
               <value value="urn:uuid:6df3e951-e6f8-441d-a298-d9d6d3f405db"/>
            </identifier>
            <status value="final"/>
            <code>
               <coding>
                  <system value="http://loinc.org"/>
                  <code value="63893-2"/>
                  <display value="Outcome of pregnancy"/>
               </coding>
            </code>
            <subject>
               <reference value="urn:uuid:6b0c9adc-a12b-11ef-d133-09173f13e4c5"/>
            </subject>
            <!--Reference to related Pregnancy Observation-->
            <focus>
               <reference value="urn:uuid:6b20b9c5-a12b-11ef-d133-09173f13e4c5"/>
            </focus>
            <effectiveDateTime value="2020-01-05T08:50:00+05:30"/>
            <valueCodeableConcept>
               <coding>
                  <system value="http://snomed.info/sct"/>
                  <code value="237364002"/>
                  <display value="Stillbirth (finding)"/>
               </coding>
            </valueCodeableConcept>
            <!--Birth Order component-->
            <component>
               <code>
                  <coding>
                     <system value="http://loinc.org"/>
                     <code value="73771-8"/>
                     <display value="Birth order"/>
                  </coding>
               </code>
               <valueInteger value="1"/>
            </component>
         </Observation>
      </resource>
   </entry>
   <entry>
      <fullUrl value="urn:uuid:6b20ba13-a12b-11ef-d133-09173f13e4c5"/>
      <resource><!--Last Menstrual Period-->
         <Observation>
            <meta>
               <profile value="http://hl7.org/fhir/us/vr-common-library/StructureDefinition/Observation-last-menstrual-period"/>
               <!--CDA templateId: urn:hl7ii:2.16.840.1.113883.10.20.30.3.34:2014-06-09-->
            </meta>
            <identifier>
               <system value="urn:ietf:rfc:3986"/>
               <value value="urn:uuid:5ffea0ae-9ae5-4313-956a-30219b4a6afa"/>
            </identifier>
            <status value="final"/>
            <code>
               <coding>
                  <system value="http://loinc.org"/>
                  <code value="8665-2"/>
                  <display value="Last menstrual period start date"/>
               </coding>
            </code>
            <subject>
               <reference value="urn:uuid:6b0c9adc-a12b-11ef-d133-09173f13e4c5"/>
            </subject>
            <effectiveDateTime value="2020-01-05T10:15:00+05:30"/>
            <!--Start of last menstrual period-->
            <valueDateTime value="2017-08-01"/>
         </Observation>
      </resource>
   </entry>
   <entry>
      <fullUrl value="urn:uuid:6b20ba1e-a12b-11ef-d133-09173f13e4c5"/>
      <resource><!--Postpartum Status-->
         <Observation>
            <meta>
               <profile value="http://hl7.org/fhir/us/ecr/StructureDefinition/us-ph-postpartum-status"/>
               <!--CDA templateId: urn:hl7ii:2.16.840.1.113883.10.20.22.4.285:2020-04-01-->
            </meta>
            <identifier>
               <system value="urn:ietf:rfc:3986"/>
               <value value="urn:uuid:9701b264-0f70-47f9-bfbf-aa4f9686cd3a"/>
            </identifier>
            <status value="final"/>
            <code>
               <coding>
                  <system value="http://snomed.info/sct"/>
                  <code value="249197004"/>
                  <display value="Maternal condition during puerperium (observable entity)"/>
               </coding>
            </code>
            <subject>
               <reference value="urn:uuid:6b0c9adc-a12b-11ef-d133-09173f13e4c5"/>
            </subject>
            <effectiveDateTime value="2020-01-05T10:15:00+05:30"/>
            <!--Postpartum status-->
            <valueCodeableConcept>
               <coding>
                  <system value="http://snomed.info/sct"/>
                  <code value="42814007"/>
                  <display value="Mid postpartum state (finding)"/>
               </coding>
            </valueCodeableConcept>
         </Observation>
      </resource>
   </entry>
   <entry>
      <fullUrl value="urn:uuid:6b20ba56-a12b-11ef-d133-09173f13e4c5"/>
      <resource>
         <Observation>
            <meta>
               <profile value="http://hl7.org/fhir/us/core/StructureDefinition/us-core-vital-signs"/>
               <!--CDA templateId: urn:hl7ii:2.16.840.1.113883.10.20.22.4.26:2015-08-01-->
            </meta>
            <identifier>
               <system value="urn:ietf:rfc:3986"/>
               <value value="urn:uuid:e421f5c8-29c2-4798-9cb5-7988c236e49d"/>
            </identifier>
            <status value="final"/>
            <category>
               <coding>
                  <system value="http://terminology.hl7.org/CodeSystem/observation-category"/>
                  <code value="vital-signs"/>
               </coding>
            </category>
            <code>
               <coding>
                  <system value="http://snomed.info/sct"/>
                  <code value="46680005"/>
                  <display value="Vital Signs"/>
               </coding>
               <coding>
                  <system value="http://loinc.org"/>
                  <code value="74728-7"/>
                  <display value="Vital signs, weight, height, head circumference, oximetry, BMI, and BSA panel"/>
               </coding>
            </code>
            <subject>
               <reference value="urn:uuid:6b0c9adc-a12b-11ef-d133-09173f13e4c5"/>
            </subject>
            <effectiveDateTime value="2014-05-20T19:36:05.000-05:00"/>
            <hasMember><!--2.16.840.1.113883.10.20.22.4.27--><!--2.16.840.1.113883.10.20.22.4.27:2014-06-09-->
               <reference value="urn:uuid:6b20ba60-a12b-11ef-d133-09173f13e4c5"/>
            </hasMember>
            <hasMember><!--2.16.840.1.113883.10.20.22.4.27--><!--2.16.840.1.113883.10.20.22.4.27:2014-06-09-->
               <reference value="urn:uuid:6b20ba79-a12b-11ef-d133-09173f13e4c5"/>
            </hasMember>
            <hasMember><!--2.16.840.1.113883.10.20.22.4.27--><!--2.16.840.1.113883.10.20.22.4.27:2014-06-09-->
               <reference value="urn:uuid:6b20ba84-a12b-11ef-d133-09173f13e4c5"/>
            </hasMember>
            <hasMember><!--2.16.840.1.113883.10.20.22.4.27--><!--2.16.840.1.113883.10.20.22.4.27:2014-06-09-->
               <reference value="urn:uuid:6b20ba91-a12b-11ef-d133-09173f13e4c5"/>
            </hasMember>
            <hasMember><!--2.16.840.1.113883.10.20.22.4.27--><!--2.16.840.1.113883.10.20.22.4.27:2014-06-09-->
               <reference value="urn:uuid:6b20ba9c-a12b-11ef-d133-09173f13e4c5"/>
            </hasMember>
            <hasMember><!--2.16.840.1.113883.10.20.22.4.27--><!--2.16.840.1.113883.10.20.22.4.27:2014-06-09-->
               <reference value="urn:uuid:6b20baa8-a12b-11ef-d133-09173f13e4c5"/>
            </hasMember>
            <hasMember><!--2.16.840.1.113883.10.20.22.4.27--><!--2.16.840.1.113883.10.20.22.4.27:2014-06-09-->
               <reference value="urn:uuid:6b20bab4-a12b-11ef-d133-09173f13e4c5"/>
            </hasMember>
            <hasMember><!--2.16.840.1.113883.10.20.22.4.27--><!--2.16.840.1.113883.10.20.22.4.27:2014-06-09-->
               <reference value="urn:uuid:6b20babf-a12b-11ef-d133-09173f13e4c5"/>
            </hasMember>
         </Observation>
      </resource>
   </entry>
   <entry>
      <fullUrl value="urn:uuid:6b20ba60-a12b-11ef-d133-09173f13e4c5"/>
      <resource>
         <Observation>
            <meta>
               <profile value="http://hl7.org/fhir/us/core/StructureDefinition/us-core-blood-pressure"/>
            </meta>
            <identifier>
               <system value="urn:ietf:rfc:3986"/>
               <value value="urn:uuid:2721acc5-0d05-4402-9e62-79943ea3901c"/>
            </identifier>
            <status value="final"/>
            <category>
               <coding>
                  <system value="http://terminology.hl7.org/CodeSystem/observation-category"/>
                  <code value="vital-signs"/>
               </coding>
            </category>
            <code>
               <coding>
                  <system value="http://loinc.org"/>
                  <code value="85354-9"/>
                  <display value="Blood pressure panel with all children optional"/>
               </coding>
               <text value="Blood pressure systolic and diastolic"/>
            </code>
            <subject>
               <reference value="urn:uuid:6b0c9adc-a12b-11ef-d133-09173f13e4c5"/>
            </subject>
            <effectiveDateTime value="2014-05-20T19:36:05.000-05:00"/>
            <note>
               <text value="120"/>
            </note>
            <component>
               <code>
                  <coding>
                     <system value="http://loinc.org"/>
                     <code value="8480-6"/>
                     <display value="SYSTOLIC BLOOD PRESSURE"/>
                  </coding>
               </code>
               <valueQuantity>
                  <value value="120"/>
                  <unit value="mm[Hg]"/>
                  <system value="http://unitsofmeasure.org"/>
                  <code value="mm[Hg]"/>
               </valueQuantity>
            </component>
            <component>
               <code>
                  <coding>
                     <system value="http://loinc.org"/>
                     <code value="8462-4"/>
                     <display value="DIASTOLIC BLOOD PRESSURE"/>
                  </coding>
               </code>
               <valueQuantity>
                  <value value="80"/>
                  <unit value="mm[Hg]"/>
                  <system value="http://unitsofmeasure.org"/>
                  <code value="mm[Hg]"/>
               </valueQuantity>
            </component>
         </Observation>
      </resource>
   </entry>
   <entry>
      <fullUrl value="urn:uuid:6b20ba79-a12b-11ef-d133-09173f13e4c5"/>
      <resource>
         <Observation>
            <meta>
               <profile value="http://hl7.org/fhir/us/core/StructureDefinition/us-core-vital-signs"/>
               <!--CDA templateId: urn:hl7ii:2.16.840.1.113883.10.20.22.4.27:2014-06-09-->
            </meta>
            <identifier>
               <system value="urn:ietf:rfc:3986"/>
               <value value="urn:uuid:83bbffe1-54e5-4984-a32d-ad8f8d6896d8"/>
            </identifier>
            <status value="final"/>
            <category>
               <coding>
                  <system value="http://terminology.hl7.org/CodeSystem/observation-category"/>
                  <code value="vital-signs"/>
               </coding>
            </category>
            <code>
               <coding>
                  <system value="http://loinc.org"/>
                  <code value="8867-4"/>
                  <display value="HEART RATE"/>
               </coding>
            </code>
            <subject>
               <reference value="urn:uuid:6b0c9adc-a12b-11ef-d133-09173f13e4c5"/>
            </subject>
            <effectiveDateTime value="2014-05-20T19:36:05.000-05:00"/>
            <valueQuantity>
               <value value="80"/>
               <unit value="/min"/>
               <system value="http://unitsofmeasure.org"/>
               <code value="/min"/>
            </valueQuantity>
            <note>
               <text value="80 /min"/>
            </note>
         </Observation>
      </resource>
   </entry>
   <entry>
      <fullUrl value="urn:uuid:6b20ba84-a12b-11ef-d133-09173f13e4c5"/>
      <resource>
         <Observation>
            <meta>
               <profile value="http://hl7.org/fhir/us/core/StructureDefinition/us-core-vital-signs"/>
               <!--CDA templateId: urn:hl7ii:2.16.840.1.113883.10.20.22.4.27:2014-06-09-->
            </meta>
            <identifier>
               <system value="urn:ietf:rfc:3986"/>
               <value value="urn:uuid:85f5784f-2958-4321-b7b6-3030d1577dc0"/>
            </identifier>
            <status value="final"/>
            <category>
               <coding>
                  <system value="http://terminology.hl7.org/CodeSystem/observation-category"/>
                  <code value="vital-signs"/>
               </coding>
            </category>
            <code>
               <coding>
                  <system value="http://loinc.org"/>
                  <code value="8310-5"/>
                  <display value="BODY TEMPERATURE"/>
               </coding>
            </code>
            <subject>
               <reference value="urn:uuid:6b0c9adc-a12b-11ef-d133-09173f13e4c5"/>
            </subject>
            <effectiveDateTime value="2014-05-20T19:36:05.000-05:00"/>
            <valueQuantity>
               <value value="99.0"/>
               <unit value="[degF]"/>
               <system value="http://unitsofmeasure.org"/>
               <code value="[degF]"/>
            </valueQuantity>
            <note>
               <text value="99.0 F"/>
            </note>
         </Observation>
      </resource>
   </entry>
   <entry>
      <fullUrl value="urn:uuid:6b20ba91-a12b-11ef-d133-09173f13e4c5"/>
      <resource>
         <Observation>
            <meta>
               <profile value="http://hl7.org/fhir/us/core/StructureDefinition/us-core-vital-signs"/>
               <!--CDA templateId: urn:hl7ii:2.16.840.1.113883.10.20.22.4.27:2014-06-09-->
            </meta>
            <identifier>
               <system value="urn:ietf:rfc:3986"/>
               <value value="urn:uuid:b618fa98-6596-4e19-a9e7-6bdb48012fc8"/>
            </identifier>
            <status value="final"/>
            <category>
               <coding>
                  <system value="http://terminology.hl7.org/CodeSystem/observation-category"/>
                  <code value="vital-signs"/>
               </coding>
            </category>
            <code>
               <coding>
                  <system value="http://loinc.org"/>
                  <code value="9279-1"/>
                  <display value="RESPIRATORY RATE"/>
               </coding>
            </code>
            <subject>
               <reference value="urn:uuid:6b0c9adc-a12b-11ef-d133-09173f13e4c5"/>
            </subject>
            <effectiveDateTime value="2014-05-20T19:36:05.000-05:00"/>
            <valueQuantity>
               <value value="18"/>
               <unit value="/min"/>
               <system value="http://unitsofmeasure.org"/>
               <code value="/min"/>
            </valueQuantity>
            <note>
               <text value="18 /min"/>
            </note>
         </Observation>
      </resource>
   </entry>
   <entry>
      <fullUrl value="urn:uuid:6b20ba9c-a12b-11ef-d133-09173f13e4c5"/>
      <resource>
         <Observation>
            <meta>
               <profile value="http://hl7.org/fhir/us/core/StructureDefinition/us-core-vital-signs"/>
               <!--CDA templateId: urn:hl7ii:2.16.840.1.113883.10.20.22.4.27:2014-06-09-->
            </meta>
            <identifier>
               <system value="urn:ietf:rfc:3986"/>
               <value value="urn:uuid:1b1274a9-b45f-449a-8493-08eaeaeba7d6"/>
            </identifier>
            <status value="final"/>
            <category>
               <coding>
                  <system value="http://terminology.hl7.org/CodeSystem/observation-category"/>
                  <code value="vital-signs"/>
               </coding>
            </category>
            <code>
               <coding>
                  <system value="http://loinc.org"/>
                  <code value="8302-2"/>
                  <display value="Body height"/>
               </coding>
            </code>
            <subject>
               <reference value="urn:uuid:6b0c9adc-a12b-11ef-d133-09173f13e4c5"/>
            </subject>
            <effectiveDateTime value="2014-05-20T19:36:05.000-05:00"/>
            <valueQuantity>
               <value value="67"/>
               <unit value="[in_i]"/>
               <system value="http://unitsofmeasure.org"/>
               <code value="[in_i]"/>
            </valueQuantity>
            <note>
               <text value="5'7 (67 inches)"/>
            </note>
         </Observation>
      </resource>
   </entry>
   <entry>
      <fullUrl value="urn:uuid:6b20baa8-a12b-11ef-d133-09173f13e4c5"/>
      <resource>
         <Observation>
            <meta>
               <profile value="http://hl7.org/fhir/us/core/StructureDefinition/us-core-vital-signs"/>
               <!--CDA templateId: urn:hl7ii:2.16.840.1.113883.10.20.22.4.27:2014-06-09-->
            </meta>
            <identifier>
               <system value="urn:ietf:rfc:3986"/>
               <value value="urn:uuid:1c1f89f1-8e93-4a46-b37f-9434f99727b8"/>
            </identifier>
            <status value="final"/>
            <category>
               <coding>
                  <system value="http://terminology.hl7.org/CodeSystem/observation-category"/>
                  <code value="vital-signs"/>
               </coding>
            </category>
            <code>
               <coding>
                  <system value="http://loinc.org"/>
                  <code value="29463-7"/>
               </coding>
               <coding>
                  <system value="http://loinc.org"/>
                  <code value="3141-9"/>
                  <display value="Body weight Measured"/>
               </coding>
            </code>
            <subject>
               <reference value="urn:uuid:6b0c9adc-a12b-11ef-d133-09173f13e4c5"/>
            </subject>
            <effectiveDateTime value="2014-05-20T19:36:05.000-05:00"/>
            <valueQuantity>
               <value value="239.9"/>
               <unit value="[lb_av]"/>
               <system value="http://unitsofmeasure.org"/>
               <code value="[lb_av]"/>
            </valueQuantity>
            <note>
               <text value="239.9 lbs"/>
            </note>
         </Observation>
      </resource>
   </entry>
   <entry>
      <fullUrl value="urn:uuid:6b20bab4-a12b-11ef-d133-09173f13e4c5"/>
      <resource>
         <Observation>
            <meta>
               <profile value="http://hl7.org/fhir/us/core/StructureDefinition/us-core-vital-signs"/>
               <!--CDA templateId: urn:hl7ii:2.16.840.1.113883.10.20.22.4.27:2014-06-09-->
            </meta>
            <identifier>
               <system value="urn:ietf:rfc:3986"/>
               <value value="urn:uuid:fd4ccd0b-c045-4587-8976-a17e2e064a1e"/>
            </identifier>
            <status value="final"/>
            <category>
               <coding>
                  <system value="http://terminology.hl7.org/CodeSystem/observation-category"/>
                  <code value="vital-signs"/>
               </coding>
            </category>
            <code>
               <coding>
                  <system value="http://loinc.org"/>
                  <code value="39156-5"/>
                  <display value="Body mass index (BMI) [Ratio]"/>
               </coding>
            </code>
            <subject>
               <reference value="urn:uuid:6b0c9adc-a12b-11ef-d133-09173f13e4c5"/>
            </subject>
            <effectiveDateTime value="2014-05-20T19:36:05.000-05:00"/>
            <valueQuantity>
               <value value="37.58"/>
               <unit value="kg/m2"/>
               <system value="http://unitsofmeasure.org"/>
               <code value="kg/m2"/>
            </valueQuantity>
            <note>
               <text value="37.58 kg/m2"/>
            </note>
         </Observation>
      </resource>
   </entry>
   <entry>
      <fullUrl value="urn:uuid:6b20babf-a12b-11ef-d133-09173f13e4c5"/>
      <resource>
         <Observation>
            <meta>
               <profile value="http://hl7.org/fhir/us/core/StructureDefinition/us-core-vital-signs"/>
               <!--CDA templateId: urn:hl7ii:2.16.840.1.113883.10.20.22.4.27:2014-06-09-->
            </meta>
            <identifier>
               <system value="urn:ietf:rfc:3986"/>
               <value value="urn:uuid:0ef4afda-1638-4ad2-9978-7321bbceb0cb"/>
            </identifier>
            <status value="final"/>
            <category>
               <coding>
                  <system value="http://terminology.hl7.org/CodeSystem/observation-category"/>
                  <code value="vital-signs"/>
               </coding>
            </category>
            <code>
               <coding>
                  <system value="http://loinc.org"/>
                  <code value="2708-6"/>
               </coding>
               <coding>
                  <system value="http://loinc.org"/>
                  <code value="2710-2"/>
                  <display value="Deprecated Oxygen saturation in Capillary blood by Oximetry"/>
               </coding>
            </code>
            <subject>
               <reference value="urn:uuid:6b0c9adc-a12b-11ef-d133-09173f13e4c5"/>
            </subject>
            <effectiveDateTime value="2014-05-20T19:36:05.000-05:00"/>
            <valueQuantity>
               <value value="98"/>
               <unit value="%"/>
               <system value="http://unitsofmeasure.org"/>
               <code value="%"/>
            </valueQuantity>
            <note>
               <text value="98%"/>
            </note>
         </Observation>
      </resource>
   </entry>
   <entry>
      <fullUrl value="urn:uuid:6b20bade-a12b-11ef-d133-09173f13e4c5"/>
      <resource><!--Processing as generic observation: 2.16.840.1.113883.10.20.15.2.3.40:-->
         <Observation>
            <meta>
               <profile value="http://hl7.org/fhir/us/ecr/StructureDefinition/us-ph-emergency-outbreak-information"/>
               <!--CDA templateId: urn:hl7ii:2.16.840.1.113883.10.20.15.2.3.40:2021-01-01-->
            </meta>
            <identifier>
               <system value="urn:ietf:rfc:3986"/>
               <value value="urn:uuid:ab1791b0-5c71-11db-b0de-0800200c9a54"/>
            </identifier>
            <status value="final"/>
            <code>
               <coding>
                  <extension url="http://hl7.org/fhir/StructureDefinition/data-absent-reason">
                     <valueCode value="unknown"/>
                  </extension>
               </coding>
               <text value="Employee desk distance from mail sorter"/>
            </code>
            <subject>
               <reference value="urn:uuid:6b0c9adc-a12b-11ef-d133-09173f13e4c5"/>
            </subject>
            <effectivePeriod>
               <start value="2020-11-01"/>
            </effectivePeriod>
            <!--INFO: Using document effective time as issued date-->
            <issued value="2020-11-07T09:44:21.000-05:00"/>
            <valueQuantity>
               <value value="2"/>
               <unit value="m"/>
            </valueQuantity>
            <hasMember><!--2.16.840.1.113883.10.20.15.2.3.40:2021-01-01-->
               <reference value="urn:uuid:6b20bae8-a12b-11ef-d133-09173f13e4c5"/>
            </hasMember>
         </Observation>
      </resource>
   </entry>
   <entry>
      <fullUrl value="urn:uuid:6b20bae8-a12b-11ef-d133-09173f13e4c5"/>
      <resource><!--Processing as generic observation: 2.16.840.1.113883.10.20.15.2.3.40:-->
         <Observation>
            <meta>
               <profile value="http://hl7.org/fhir/us/ecr/StructureDefinition/us-ph-emergency-outbreak-information"/>
               <!--CDA templateId: urn:hl7ii:2.16.840.1.113883.10.20.15.2.3.40:2021-01-01-->
            </meta>
            <identifier>
               <system value="urn:ietf:rfc:3986"/>
               <value value="urn:uuid:ab1791b0-5c71-11db-b0de-0800200c9a54"/>
            </identifier>
            <status value="final"/>
            <code>
               <coding>
                  <extension url="http://hl7.org/fhir/StructureDefinition/data-absent-reason">
                     <valueCode value="unknown"/>
                  </extension>
               </coding>
               <text value="Location of sorter"/>
            </code>
            <subject>
               <reference value="urn:uuid:6b0c9adc-a12b-11ef-d133-09173f13e4c5"/>
            </subject>
            <effectivePeriod>
               <start value="2020-11-01"/>
            </effectivePeriod>
            <!--INFO: Using document effective time as issued date-->
            <issued value="2020-11-07T09:44:21.000-05:00"/>
            <valueString value="north side of building room 205"/>
         </Observation>
      </resource>
   </entry>
   <entry>
      <fullUrl value="urn:uuid:6b20baf3-a12b-11ef-d133-09173f13e4c5"/>
      <resource><!--Processing as generic observation: 2.16.840.1.113883.10.20.15.2.3.40:-->
         <Observation>
            <meta>
               <profile value="http://hl7.org/fhir/us/ecr/StructureDefinition/us-ph-emergency-outbreak-information"/>
               <!--CDA templateId: urn:hl7ii:2.16.840.1.113883.10.20.15.2.3.40:2021-01-01-->
            </meta>
            <identifier>
               <system value="urn:ietf:rfc:3986"/>
               <value value="urn:uuid:ab1791b0-5c71-11db-b0de-0800200c9a54"/>
            </identifier>
            <status value="final"/>
            <code>
               <coding>
                  <extension url="http://hl7.org/fhir/StructureDefinition/data-absent-reason">
                     <valueCode value="unknown"/>
                  </extension>
               </coding>
               <text value="Number of mail pieces through sorter per hour"/>
            </code>
            <subject>
               <reference value="urn:uuid:6b0c9adc-a12b-11ef-d133-09173f13e4c5"/>
            </subject>
            <effectivePeriod>
               <start value="2020-11-01"/>
            </effectivePeriod>
            <!--INFO: Using document effective time as issued date-->
            <issued value="2020-11-07T09:44:21.000-05:00"/>
            <valueQuantity>
               <value value="1000"/>
               <unit value="h"/>
            </valueQuantity>
            <hasMember><!--2.16.840.1.113883.10.20.15.2.3.40:2021-01-01-->
               <reference value="urn:uuid:6b20bafd-a12b-11ef-d133-09173f13e4c5"/>
            </hasMember>
         </Observation>
      </resource>
   </entry>
   <entry>
      <fullUrl value="urn:uuid:6b20bafd-a12b-11ef-d133-09173f13e4c5"/>
      <resource><!--Processing as generic observation: 2.16.840.1.113883.10.20.15.2.3.40:-->
         <Observation>
            <meta>
               <profile value="http://hl7.org/fhir/us/ecr/StructureDefinition/us-ph-emergency-outbreak-information"/>
               <!--CDA templateId: urn:hl7ii:2.16.840.1.113883.10.20.15.2.3.40:2021-01-01-->
            </meta>
            <identifier>
               <system value="urn:ietf:rfc:3986"/>
               <value value="urn:uuid:ab1791b0-5c71-11db-b0de-0800200c9a54"/>
            </identifier>
            <status value="final"/>
            <code>
               <coding>
                  <extension url="http://hl7.org/fhir/StructureDefinition/data-absent-reason">
                     <valueCode value="unknown"/>
                  </extension>
               </coding>
               <text value="sorter ID"/>
            </code>
            <subject>
               <reference value="urn:uuid:6b0c9adc-a12b-11ef-d133-09173f13e4c5"/>
            </subject>
            <effectivePeriod>
               <start value="2020-11-01"/>
            </effectivePeriod>
            <!--INFO: Using document effective time as issued date-->
            <issued value="2020-11-07T09:44:21.000-05:00"/>
            <valueString value="205B"/>
         </Observation>
      </resource>
   </entry>
   <entry>
      <fullUrl value="urn:uuid:6b20bb20-a12b-11ef-d133-09173f13e4c5"/>
      <resource><!--Relevant Reportable Condition Observation-->
         <Observation>
            <meta>
               <profile value="http://hl7.org/fhir/us/ecr/StructureDefinition/rr-relevant-reportable-condition-observation"/>
               <!--CDA templateId: urn:hl7ii:2.16.840.1.113883.10.20.15.2.3.12:2017-04-01-->
            </meta>
            <identifier>
               <system value="urn:ietf:rfc:3986"/>
               <value value="urn:uuid:a054d401-7b23-4b15-bc28-c889c156ba6a"/>
            </identifier>
            <status value="final"/>
            <code>
               <coding>
                  <system value="http://snomed.info/sct"/>
                  <code value="64572001"/>
                  <display value="Disease (disorder)"/>
               </coding>
               <coding>
                  <system value="http://loinc.org"/>
                  <code value="75323-6"/>
                  <display value="Condition"/>
               </coding>
            </code>
            <subject>
               <reference value="urn:uuid:6b0c9adc-a12b-11ef-d133-09173f13e4c5"/>
            </subject>
            <valueCodeableConcept>
               <coding>
                  <system value="http://snomed.info/sct"/>
                  <code value="3928002"/>
                  <display value="Zika virus disease (disorder)"/>
               </coding>
            </valueCodeableConcept>
            <hasMember><!--2.16.840.1.113883.10.20.15.2.3.13:2017-04-01-->
               <reference value="urn:uuid:6b20bb2a-a12b-11ef-d133-09173f13e4c5"/>
            </hasMember>
         </Observation>
      </resource>
   </entry>
   <entry>
      <fullUrl value="urn:uuid:6b20bb2a-a12b-11ef-d133-09173f13e4c5"/>
      <resource><!--Reportability Information Observation-->
         <Observation>
            <meta>
               <profile value="http://hl7.org/fhir/us/ecr/StructureDefinition/rr-reportability-information-observation"/>
               <!--CDA templateId: urn:hl7ii:2.16.840.1.113883.10.20.15.2.3.13:2017-04-01-->
            </meta>
            <!--RR Determination of Reportability-->
            <extension url="http://hl7.org/fhir/us/ecr/StructureDefinition/us-ph-determination-of-reportability-extension">
               <valueCodeableConcept>
                  <coding>
                     <system value="urn:oid:2.16.840.1.114222.4.5.274"/>
                     <code value="RRVS1"/>
                     <display value="Reportable"/>
                  </coding>
               </valueCodeableConcept>
            </extension>
            <!--Determination of Reportability Reason Extension-->
            <extension url="http://hl7.org/fhir/us/ecr/StructureDefinition/us-ph-determination-of-reportability-reason-extension">
               <valueString value="Reason for determination of reportability"/>
            </extension>
            <!--Determination of Reportability Rule Extension-->
            <extension url="http://hl7.org/fhir/us/ecr/StructureDefinition/us-ph-determination-of-reportability-rule-extension">
               <valueString value="Rule used in reportability determination"/>
            </extension>
            <identifier>
               <system value="urn:ietf:rfc:3986"/>
               <value value="urn:uuid:fcf92143-4289-450e-9550-8d574facf626"/>
            </identifier>
            <status value="final"/>
            <code>
               <coding>
                  <system value="urn:oid:2.16.840.1.114222.4.5.274"/>
                  <code value="RRVS7"/>
                  <display value="Both patient home address and provider facility address"/>
               </coding>
            </code>
            <subject>
               <reference value="urn:uuid:6b0c9adc-a12b-11ef-d133-09173f13e4c5"/>
            </subject>
            <!--Rules Authoring Agency, Routing Entity, Responsible Agency-->
            <performer>
               <reference value="urn:uuid:6b20bb33-a12b-11ef-d133-09173f13e4c5"/>
            </performer>
            <!--Rules Authoring Agency, Routing Entity, Responsible Agency-->
            <performer>
               <reference value="urn:uuid:6b20bb49-a12b-11ef-d133-09173f13e4c5"/>
            </performer>
            <!--Rules Authoring Agency, Routing Entity, Responsible Agency-->
            <performer>
               <reference value="urn:uuid:6b20bb5e-a12b-11ef-d133-09173f13e4c5"/>
            </performer>
            <component>
               <code>
                  <coding>
                     <system value="urn:oid:2.16.840.1.114222.4.5.232"/>
                     <code value="RR4"/>
                     <display value="Timeframe to report (urgency)"/>
                  </coding>
               </code>
               <valueQuantity>
                  <value>
                     <extension url="http://hl7.org/fhir/StructureDefinition/data-absent-reason">
                        <valueCode value="unknown"/>
                     </extension>
                  </value>
                  <unit>
                     <extension url="http://hl7.org/fhir/StructureDefinition/data-absent-reason">
                        <valueCode value="unknown"/>
                     </extension>
                  </unit>
               </valueQuantity>
            </component>
         </Observation>
      </resource>
   </entry>
   <entry>
      <fullUrl value="urn:uuid:6b20bb33-a12b-11ef-d133-09173f13e4c5"/>
      <resource>
         <Organization>
            <meta>
               <profile value="http://hl7.org/fhir/us/ecr/StructureDefinition/rr-responsible-agency-organization"/>
            </meta>
            <!--participant[LOC]-->
            <identifier>
               <system value="http://hl7.org/fhir/sid/us-npi"/>
               <value value="chi"/>
            </identifier>
            <active value="true"/>
            <type>
               <coding>
                  <system value="urn:oid:2.16.840.1.114222.4.5.232"/>
                  <code value="RR8"/>
                  <display value="Responsible Agency"/>
               </coding>
            </type>
            <name value="State Department of Health"/>
            <telecom>
               <system value="phone"/>
               <value value="+1-555-555-3555"/>
               <use value="work"/>
            </telecom>
            <telecom>
               <system value="fax"/>
               <value value="+1-955-555-3555"/>
               <use value="work"/>
            </telecom>
            <telecom>
               <system value="email"/>
               <value value="mail@healthauthoritywest.gov"/>
               <use value="work"/>
            </telecom>
            <telecom>
               <system value="url"/>
               <value value="https://www.healthauthoritywest.gov"/>
               <use value="work"/>
            </telecom>
            <address>
               <use value="work"/>
               <line value="7777 Health Authority Drive"/>
               <state value="State"/>
               <postalCode value="99999"/>
            </address>
         </Organization>
      </resource>
   </entry>
   <entry>
      <fullUrl value="urn:uuid:6b20bb49-a12b-11ef-d133-09173f13e4c5"/>
      <resource>
         <Organization>
            <meta>
               <profile value="http://hl7.org/fhir/us/ecr/StructureDefinition/rr-rules-authoring-agency-organization"/>
            </meta>
            <!--participant[LOC]-->
            <identifier>
               <system value="http://hl7.org/fhir/sid/us-npi"/>
               <value value="chi"/>
            </identifier>
            <active value="true"/>
            <type>
               <coding>
                  <system value="urn:oid:2.16.840.1.114222.4.5.232"/>
                  <code value="RR12"/>
                  <display value="Rules Authoring Agency"/>
               </coding>
            </type>
            <name value="State Department of Health"/>
            <telecom>
               <system value="phone"/>
               <value value="+1-555-555-3555"/>
               <use value="work"/>
            </telecom>
            <telecom>
               <system value="fax"/>
               <value value="+1-955-555-3555"/>
               <use value="work"/>
            </telecom>
            <telecom>
               <system value="email"/>
               <value value="mail@healthauthoritywest.gov"/>
               <use value="work"/>
            </telecom>
            <telecom>
               <system value="url"/>
               <value value="https://www.healthauthoritywest.gov"/>
               <use value="work"/>
            </telecom>
            <address>
               <use value="work"/>
               <line value="7777 Health Authority Drive"/>
               <city value="City"/>
               <state value="State"/>
               <postalCode value="99999"/>
            </address>
         </Organization>
      </resource>
   </entry>
   <entry>
      <fullUrl value="urn:uuid:6b20bb5e-a12b-11ef-d133-09173f13e4c5"/>
      <resource>
         <Organization>
            <meta>
               <profile value="http://hl7.org/fhir/us/ecr/StructureDefinition/rr-routing-entity-organization"/>
            </meta>
            <!--participant[LOC]-->
            <identifier>
               <system value="http://hl7.org/fhir/sid/us-npi"/>
               <value value="chi"/>
            </identifier>
            <active value="true"/>
            <type>
               <coding>
                  <system value="urn:oid:2.16.840.1.114222.4.5.232"/>
                  <code value="RR7"/>
                  <display value="Routing Entity"/>
               </coding>
            </type>
            <name value="State Department of Health Routing Agency"/>
            <telecom>
               <system value="phone"/>
               <value value="+1-555-555-3555"/>
               <use value="work"/>
            </telecom>
            <telecom>
               <system value="fax"/>
               <value value="+1-955-555-3555"/>
               <use value="work"/>
            </telecom>
            <telecom>
               <system value="email"/>
               <value value="mail@healthauthoritywest.gov"/>
               <use value="work"/>
            </telecom>
            <telecom>
               <system value="url"/>
               <value value="https://www.healthauthoritywest.gov"/>
               <use value="work"/>
            </telecom>
            <address>
               <use value="work"/>
               <line value="7777 Health Authority Drive"/>
               <city value="City"/>
               <state value="State"/>
               <postalCode value="99999"/>
            </address>
         </Organization>
      </resource>
   </entry>
</Bundle>
