{
  "resourceType" : "Bundle",
  "id" : "eICR-bundle-db734647-fc99-424c-a864-7e3cda82e704",
  "fhir_comments" : [ "Element count: 1938" ],
  "meta" : {
    "profile" : [ "http://hl7.org/fhir/us/ecr/StructureDefinition/eicr-document-bundle" ]
  },
  "identifier" : {
    "system" : "urn:oid:2.16.840.1.113883.9.9.9.9.9",
    "value" : "db734647-fc99-424c-a864-7e3cda82e704"
  },
  "type" : "document",
  "timestamp" : "2020-11-07T09:44:21.000-05:00",
  "entry" : [ {
    "fullUrl" : "urn:uuid:6b0c6c01-a12b-11ef-d133-09173f13e4c5",
    "resource" : {
      "resourceType" : "Composition",
      "meta" : {
        "profile" : [ "http://hl7.org/fhir/us/ecr/StructureDefinition/eicr-composition" ]
      },
      "language" : "en-US",
      "text" : {
        "status" : "generated",
        "div" : "<div xml:lang=\"en-US\" xmlns=\"http://www.w3.org/1999/xhtml\" lang=\"en-US\">\n                  <table xmlns=\"null\" style=\"border: 1pt inset #00008b; line-height: 10pt; width: 100%;\" class=\"header_table\">\n                     <tbody xmlns=\"http://www.w3.org/1999/xhtml\">\n                        <tr>\n                           <td style=\"width: 20%; background-color: #3399ff; padding: 0.1cm 0.2cm; vertical-align: top; background-color: #ffffcc;\" class=\"td_header_role_name\">\n                              <span class=\"td_label\">Document Id</span>\n                           </td>\n                           <td class=\"td_header_role_value\">db734647-fc99-424c-a864-7e3cda82e704 2.16.840.1.113883.9.9.9.9.9</td>\n                        </tr>\n                        <tr>\n                           <td style=\"width: 20%; background-color: #3399ff; padding: 0.1cm 0.2cm; vertical-align: top; background-color: #ffffcc;\" class=\"td_header_role_name\">\n                              <span class=\"td_label\">Document Created:</span>\n                           </td>\n                           <td class=\"td_header_role_value\">November 7, 2020, 09:44:21, EST </td>\n                        </tr>\n                     </tbody>\n                  </table>\n                  <table xmlns=\"null\" style=\"border: 1pt inset #00008b; line-height: 10pt; width: 100%;\" class=\"header_table\">\n                     <tbody xmlns=\"http://www.w3.org/1999/xhtml\">  <!-- Author -->\n                        <tr>\n                           <td style=\"width: 20%; background-color: #3399ff; padding: 0.1cm 0.2cm; vertical-align: top; background-color: #ffffcc;\" class=\"td_header_role_name\">\n                              <span class=\"td_label\">Author</span>\n                           </td>\n                           <td class=\"td_header_role_value\"/>\n                        </tr>\n                        <tr>\n                           <td style=\"width: 20%; background-color: #3399ff; padding: 0.1cm 0.2cm; vertical-align: top; background-color: #ffffcc;\" class=\"td_header_role_name\">\n                              <span class=\"td_label\">Contact info</span>\n                           </td>\n                           <td class=\"td_header_role_value\">1002 Healthcare Drive<br/>CHICAGO, IL 60612, USA<br/>Tel (Work Place):  +1-(555)555-1212;ext=9998<br/>\n                           </td>\n                        </tr>\n                     </tbody>\n                  </table>\n                  <table xmlns=\"null\" style=\"border: 1pt inset #00008b; line-height: 10pt; width: 100%;\" class=\"header_table\">\n                     <tbody xmlns=\"http://www.w3.org/1999/xhtml\">  <!-- encompassingEncounter -->\n                        <tr>\n                           <td style=\"width: 20%; background-color: #3399ff; padding: 0.1cm 0.2cm; vertical-align: top; background-color: #ffffcc;\" class=\"td_header_role_name\">\n                              <span class=\"td_label\">Encounter Id</span>\n                           </td>\n                           <td class=\"td_header_role_value\">9937012 2.16.840.1.113883.19</td>\n                        </tr>\n                        <tr>\n                           <td style=\"width: 20%; background-color: #3399ff; padding: 0.1cm 0.2cm; vertical-align: top; background-color: #ffffcc;\" class=\"td_header_role_name\">\n                              <span class=\"td_label\">Encounter Type</span>\n                           </td>\n                           <td class=\"td_header_role_value\">Ambulatory</td>\n                        </tr>\n                        <tr>\n                           <td style=\"width: 20%; background-color: #3399ff; padding: 0.1cm 0.2cm; vertical-align: top; background-color: #ffffcc;\" class=\"td_header_role_name\">\n                              <span class=\"td_label\">Encounter Date</span>\n                           </td>\n                           <td class=\"td_header_role_value\"> From November 7, 2020, 08:44:21, EST  to November 8, 2020, 11:21:03, EST </td>\n                        </tr>\n                        <tr>\n                           <td style=\"width: 20%; background-color: #3399ff; padding: 0.1cm 0.2cm; vertical-align: top; background-color: #ffffcc;\" class=\"td_header_role_name\">\n                              <span class=\"td_label\">Encounter Location</span>\n                           </td>\n                           <td class=\"td_header_role_value\">Outpatient facility</td>\n                        </tr>\n                        <tr>\n                           <td style=\"width: 20%; background-color: #3399ff; padding: 0.1cm 0.2cm; vertical-align: top; background-color: #ffffcc;\" class=\"td_header_role_name\">\n                              <span class=\"td_label\">Responsible party</span>\n                           </td>\n                           <td class=\"td_header_role_value\">Henry Seven, M.D. of Community Health and Hospitals</td>\n                        </tr>\n                        <tr>\n                           <td style=\"width: 20%; background-color: #3399ff; padding: 0.1cm 0.2cm; vertical-align: top; background-color: #ffffcc;\" class=\"td_header_role_name\">\n                              <span class=\"td_label\">Contact info</span>\n                           </td>\n                           <td class=\"td_header_role_value\">1002 Healthcare Drive<br/>CHICAGO, IL 60612, USA<br/>Tel (Work Place):  +1(555)555-1003<br/>Fax (Work Place):  +1(555)555-1234<br/>Mail (Work Place):  mail@provider_domain.com<br/>\n                           </td>\n                        </tr>\n                     </tbody>\n                  </table>\n                  <table xmlns=\"null\" style=\"border: 1pt inset #00008b; line-height: 10pt; width: 100%;\" class=\"header_table\">\n                     <tbody xmlns=\"http://www.w3.org/1999/xhtml\">\n                        <tr>\n                           <td style=\"width: 20%; background-color: #3399ff; padding: 0.1cm 0.2cm; vertical-align: top; background-color: #ffffcc;\" class=\"td_header_role_name\">\n                              <span class=\"td_label\">Document maintained by</span>\n                           </td>\n                           <td class=\"td_header_role_value\">Good Health Hospital</td>\n                        </tr>\n                        <tr>\n                           <td style=\"width: 20%; background-color: #3399ff; padding: 0.1cm 0.2cm; vertical-align: top; background-color: #ffffcc;\" class=\"td_header_role_name\">\n                              <span class=\"td_label\">Contact info</span>\n                           </td>\n                           <td class=\"td_header_role_value\">1002 Healthcare Drive<br/>CHICAGO, IL 60612, USA<br/>Tel (Work Place):  +1(555)555-1212<br/>\n                           </td>\n                        </tr>\n                     </tbody>\n                  </table>\n               </div>"
      },
      "extension" : [ {
        "fhir_comments" : [ "Version Number" ],
        "url" : "http://hl7.org/fhir/StructureDefinition/composition-clinicaldocument-versionNumber",
        "valueString" : "2"
      } ],
      "identifier" : {
        "system" : "urn:oid:2.16.840.1.113883.3.117.1.1.5.2.1.1.1",
        "value" : "31"
      },
      "status" : "final",
      "type" : {
        "coding" : [ {
          "system" : "http://loinc.org",
          "code" : "55751-2",
          "display" : "Public health Case report"
        } ]
      },
      "subject" : {
        "reference" : "urn:uuid:6b0c9adc-a12b-11ef-d133-09173f13e4c5"
      },
      "encounter" : {
        "reference" : "urn:uuid:6b0e6ee3-a12b-11ef-d133-09173f13e4c5"
      },
      "date" : "2020-11-07T09:44:21.000-05:00",
      "author" : [ {
        "reference" : "urn:uuid:6b0e6ec7-a12b-11ef-d133-09173f13e4c5"
      } ],
      "title" : "Initial Public Health Case Report",
      "confidentiality" : "N",
      "custodian" : {
        "reference" : "urn:uuid:6b0e6ecd-a12b-11ef-d133-09173f13e4c5"
      },
      "relatesTo" : [ {
        "code" : "transforms",
        "targetIdentifier" : {
          "system" : "urn:oid:2.16.840.1.113883.9.9.9.9.9",
          "value" : "db734647-fc99-424c-a864-7e3cda82e704"
        }
      }, {
        "code" : "replaces",
        "targetIdentifier" : {
          "system" : "urn:oid:2.16.840.1.113883.9.9.9.9.9",
          "value" : "db734647-fc99-424c-a864-7e3cda82e704"
        }
      } ],
      "section" : [ {
        "title" : "Plan of Treatment",
        "code" : {
          "coding" : [ {
            "system" : "http://loinc.org",
            "code" : "18776-5",
            "display" : "Plan of care note"
          } ]
        },
        "text" : {
          "status" : "additional",
          "div" : "<div xmlns=\"http://www.w3.org/1999/xhtml\">\n                     <table>\n                        <thead>\n                           <tr>\n                              <th>Initial Case Report Trigger\n\t\t\t\t\t\t\t\t\t\t<br/>Code Lab Test Order\n\t\t\t\t\t\t\t\t\t</th>\n                              <th>Trigger Code</th>\n                              <th>Trigger Code codeSystem</th>\n                              <th>RCTC OID</th>\n                              <th>RCTC Version</th>\n                              <th>Ordered Date</th>\n                           </tr>\n                        </thead>\n                        <tbody>\n                           <tr>\n                              <td>Zika virus envelope (E) gene [Presence] in Serum\n\t\t\t\t\t\t\t\t\t\t<br/>by Probe and target amplification method\n\t\t\t\t\t\t\t\t\t</td>\n                              <td>80825-3</td>\n                              <td>LOINC</td>\n                              <td>2.16.840.1.114222.4.11.7508</td>\n                              <td>19/05/2020</td>\n                              <td>NOV 8, 2020</td>\n                           </tr>\n                        </tbody>\n                     </table>\n                  </div>"
        },
        "entry" : [ {
          "fhir_comments" : [ "2.16.840.1.113883.10.20.22.4.44", "2.16.840.1.113883.10.20.22.4.44:2014-06-09", "2.16.840.1.113883.10.20.15.2.3.4:2019-04-01" ],
          "extension" : [ {
            "fhir_comments" : [ "eICR Trigger Code Flag Extension" ],
            "url" : "http://hl7.org/fhir/us/ecr/StructureDefinition/eicr-trigger-code-flag-extension",
            "extension" : [ {
              "fhir_comments" : [ "eICR Trigger Code Flag Extension" ],
              "url" : "triggerCodeValueSet",
              "valueOid" : "urn:oid:2.16.840.1.114222.4.11.7508"
            }, {
              "fhir_comments" : [ "eICR Trigger Code Flag Extension" ],
              "url" : "triggerCodeValueSetVersion",
              "valueString" : "2020-11-13"
            }, {
              "fhir_comments" : [ "eICR Trigger Code Flag Extension" ],
              "url" : "triggerCode",
              "valueCoding" : {
                "system" : "http://loinc.org",
                "code" : "80825-3",
                "display" : "Zika virus envelope E gene [Presence] in Serum by NAA with probe detection"
              }
            } ]
          } ],
          "reference" : "urn:uuid:6b0e6f5c-a12b-11ef-d133-09173f13e4c5"
        }, {
          "fhir_comments" : [ "2.16.840.1.113883.10.20.22.4.41:2014-06-09", "2.16.840.1.113883.10.20.15.2.3.42:2021-01-01" ],
          "extension" : [ {
            "fhir_comments" : [ "eICR Trigger Code Flag Extension" ],
            "url" : "http://hl7.org/fhir/us/ecr/StructureDefinition/eicr-trigger-code-flag-extension",
            "extension" : [ {
              "fhir_comments" : [ "eICR Trigger Code Flag Extension" ],
              "url" : "triggerCodeValueSet",
              "valueOid" : "urn:oid:2.16.840.1.114222.4.11.7508"
            }, {
              "fhir_comments" : [ "eICR Trigger Code Flag Extension" ],
              "url" : "triggerCodeValueSetVersion",
              "valueString" : "2020-11-13"
            }, {
              "fhir_comments" : [ "eICR Trigger Code Flag Extension" ],
              "url" : "triggerCode",
              "valueCoding" : {
                "system" : "http://snomed.info/sct",
                "code" : "233573008",
                "display" : "Extracorporeal membrane oxygenation (procedure)"
              }
            } ]
          } ],
          "reference" : "urn:uuid:6b0e6f6d-a12b-11ef-d133-09173f13e4c5"
        }, {
          "fhir_comments" : [ "2.16.840.1.113883.10.20.22.4.39:2014-06-09", "2.16.840.1.113883.10.20.15.2.3.41:2021-01-01" ],
          "extension" : [ {
            "fhir_comments" : [ "eICR Trigger Code Flag Extension" ],
            "url" : "http://hl7.org/fhir/us/ecr/StructureDefinition/eicr-trigger-code-flag-extension",
            "extension" : [ {
              "fhir_comments" : [ "eICR Trigger Code Flag Extension" ],
              "url" : "triggerCodeValueSet",
              "valueOid" : "urn:oid:2.16.840.1.114222.4.11.7508"
            }, {
              "fhir_comments" : [ "eICR Trigger Code Flag Extension" ],
              "url" : "triggerCodeValueSetVersion",
              "valueString" : "2020-11-13"
            }, {
              "fhir_comments" : [ "eICR Trigger Code Flag Extension" ],
              "url" : "triggerCode",
              "valueCoding" : {
                "system" : "http://snomed.info/sct",
                "code" : "409524006",
                "display" : "Airborne precautions (procedure)"
              }
            } ]
          } ],
          "reference" : "urn:uuid:6b0e6f7a-a12b-11ef-d133-09173f13e4c5"
        }, {
          "fhir_comments" : [ "2.16.840.1.113883.10.20.22.4.44:2014-06-09", "2.16.840.1.113883.10.20.15.2.3.43:2021-01-01" ],
          "extension" : [ {
            "fhir_comments" : [ "eICR Trigger Code Flag Extension" ],
            "url" : "http://hl7.org/fhir/us/ecr/StructureDefinition/eicr-trigger-code-flag-extension",
            "extension" : [ {
              "fhir_comments" : [ "eICR Trigger Code Flag Extension" ],
              "url" : "triggerCodeValueSet",
              "valueOid" : "urn:oid:2.16.840.1.114222.4.11.7508"
            }, {
              "fhir_comments" : [ "eICR Trigger Code Flag Extension" ],
              "url" : "triggerCodeValueSetVersion",
              "valueString" : "2020-11-13"
            }, {
              "fhir_comments" : [ "eICR Trigger Code Flag Extension" ],
              "url" : "triggerCode",
              "valueCoding" : {
                "system" : "http://snomed.info/sct",
                "code" : "385857005",
                "display" : "Ventilator care and adjustment (regime/therapy)"
              }
            } ]
          } ],
          "reference" : "urn:uuid:6b0e6f86-a12b-11ef-d133-09173f13e4c5"
        } ]
      }, {
        "title" : "History of Present Illness",
        "code" : {
          "coding" : [ {
            "system" : "http://loinc.org",
            "code" : "10164-2",
            "display" : "History of Present illness Narrative"
          } ]
        },
        "text" : {
          "status" : "generated",
          "div" : "<div xmlns=\"http://www.w3.org/1999/xhtml\">\n                     <p> Persistent Cough REPORTED starting on 2020/10/05\n\t\t\t\t\t\t\t<br/> Whooping Respiration not reported\n\t\t\t\t\t\t\t<br/> Paroxysms Of Coughing REPORTED starting on 2020/11/04\n\t\t\t\t\t\t\t<br/> Post-tussive vomiting not reported\n\t\t\t\t\t\t\t<br/>\n                     </p>\n                  </div>"
        }
      }, {
        "title" : "Medications Administered",
        "code" : {
          "coding" : [ {
            "system" : "http://loinc.org",
            "code" : "29549-3",
            "display" : "Medication administered Narrative"
          } ]
        },
        "text" : {
          "status" : "generated",
          "div" : "<div xmlns=\"http://www.w3.org/1999/xhtml\">\n                     <table>\n                        <thead>\n                           <tr>\n                              <th>Medication</th>\n                              <th>Dose</th>\n                              <th>Duration</th>\n                              <th>Route</th>\n                           </tr>\n                        </thead>\n                        <tbody>\n                           <tr>\n                              <td>Azithromycin 500 MG Oral Tablet</td>\n                              <td>1 g</td>\n                              <td>NOV 7, 2020 11:59</td>\n                              <td>ORAL</td>\n                           </tr>\n                        </tbody>\n                     </table>\n                  </div>"
        },
        "entry" : [ {
          "fhir_comments" : [ "2.16.840.1.113883.10.20.22.4.16", "2.16.840.1.113883.10.20.22.4.16:2014-06-09" ],
          "extension" : [ {
            "fhir_comments" : [ "eICR Trigger Code Flag Extension" ],
            "url" : "http://hl7.org/fhir/us/ecr/StructureDefinition/eicr-trigger-code-flag-extension",
            "extension" : [ {
              "fhir_comments" : [ "eICR Trigger Code Flag Extension" ],
              "url" : "triggerCodeValueSet",
              "valueOid" : "urn:oid:2.16.840.1.114222.4.11.7508"
            }, {
              "fhir_comments" : [ "eICR Trigger Code Flag Extension" ],
              "url" : "triggerCodeValueSetVersion",
              "valueString" : "2020-11-13"
            }, {
              "fhir_comments" : [ "eICR Trigger Code Flag Extension" ],
              "url" : "triggerCode",
              "valueCoding" : {
                "system" : "http://www.nlm.nih.gov/research/umls/rxnorm",
                "code" : "248656",
                "display" : "Azithromycin 500 MG Oral Tablet"
              }
            } ]
          } ],
          "reference" : "urn:uuid:6b0e7045-a12b-11ef-d133-09173f13e4c5"
        } ]
      }, {
        "title" : "MEDICATIONS",
        "code" : {
          "coding" : [ {
            "system" : "http://loinc.org",
            "code" : "10160-0",
            "display" : "History of Medication use Narrative"
          } ]
        },
        "text" : {
          "status" : "additional",
          "div" : "<div xmlns=\"http://www.w3.org/1999/xhtml\">             Narrative Text           </div>"
        },
        "entry" : [ {
          "fhir_comments" : [ "2.16.840.1.113883.10.20.22.4.16:2014-06-09" ],
          "reference" : "urn:uuid:6b0e706c-a12b-11ef-d133-09173f13e4c5"
        }, {
          "fhir_comments" : [ "2.16.840.1.113883.10.20.22.4.16:2014-06-09" ],
          "reference" : "urn:uuid:6b0e709e-a12b-11ef-d133-09173f13e4c5"
        }, {
          "fhir_comments" : [ "2.16.840.1.113883.10.20.22.4.9:2014-06-09" ],
          "reference" : "urn:uuid:6b0e707f-a12b-11ef-d133-09173f13e4c5"
        }, {
          "fhir_comments" : [ "2.16.840.1.113883.10.20.22.4.16:2014-06-09" ],
          "reference" : "urn:uuid:6b0e708b-a12b-11ef-d133-09173f13e4c5"
        } ]
      }, {
        "title" : "Admission Medications",
        "code" : {
          "coding" : [ {
            "system" : "http://loinc.org",
            "code" : "42346-7"
          } ]
        },
        "text" : {
          "status" : "additional",
          "div" : "<div xmlns=\"http://www.w3.org/1999/xhtml\">Some text here</div>"
        },
        "entry" : [ {
          "fhir_comments" : [ "2.16.840.1.113883.10.20.22.4.36:2014-06-09" ],
          "reference" : "urn:uuid:6b0e70c5-a12b-11ef-d133-09173f13e4c5"
        }, {
          "fhir_comments" : [ "2.16.840.1.113883.10.20.22.4.16:2014-06-09" ],
          "extension" : [ {
            "fhir_comments" : [ "eICR Trigger Code Flag Extension" ],
            "url" : "http://hl7.org/fhir/us/ecr/StructureDefinition/eicr-trigger-code-flag-extension",
            "extension" : [ {
              "fhir_comments" : [ "eICR Trigger Code Flag Extension" ],
              "url" : "triggerCodeValueSet",
              "valueOid" : "urn:oid:2.16.840.1.114222.4.11.7508"
            }, {
              "fhir_comments" : [ "eICR Trigger Code Flag Extension" ],
              "url" : "triggerCodeValueSetVersion",
              "valueString" : "2020-11-13"
            }, {
              "fhir_comments" : [ "eICR Trigger Code Flag Extension" ],
              "url" : "triggerCode",
              "valueCoding" : {
                "system" : "http://www.nlm.nih.gov/research/umls/rxnorm",
                "code" : "248656",
                "display" : "Azithromycin 500 MG Oral Tablet"
              }
            } ]
          } ],
          "reference" : "urn:uuid:6b0e70c9-a12b-11ef-d133-09173f13e4c5"
        } ]
      }, {
        "title" : "HOSPITAL ADMISSION DIAGNOSIS",
        "code" : {
          "coding" : [ {
            "system" : "http://loinc.org",
            "code" : "46241-6",
            "display" : "Hospital Admission             Diagnosis"
          }, {
            "system" : "http://loinc.org",
            "code" : "42347-5",
            "display" : "Admission Diagnosis"
          } ]
        },
        "text" : {
          "status" : "additional",
          "div" : "<div xmlns=\"http://www.w3.org/1999/xhtml\">Appendicitis</div>"
        },
        "entry" : [ {
          "fhir_comments" : [ "2.16.840.1.113883.10.20.22.4.4", "2.16.840.1.113883.10.20.22.4.4:2015-08-01", "2.16.840.1.113883.10.20.15.2.3.3:2021-01-01" ],
          "extension" : [ {
            "fhir_comments" : [ "eICR Trigger Code Flag Extension" ],
            "url" : "http://hl7.org/fhir/us/ecr/StructureDefinition/eicr-trigger-code-flag-extension",
            "extension" : [ {
              "fhir_comments" : [ "eICR Trigger Code Flag Extension" ],
              "url" : "triggerCodeValueSet",
              "valueOid" : "urn:oid:2.16.840.1.114222.4.11.7508"
            }, {
              "fhir_comments" : [ "eICR Trigger Code Flag Extension" ],
              "url" : "triggerCodeValueSetVersion",
              "valueString" : "2020-11-13"
            }, {
              "fhir_comments" : [ "eICR Trigger Code Flag Extension" ],
              "url" : "triggerCode",
              "valueCoding" : {
                "system" : "http://snomed.info/sct",
                "code" : "27836007",
                "display" : "Pertussis (disorder)"
              }
            } ]
          } ],
          "reference" : "urn:uuid:6b0e70ea-a12b-11ef-d133-09173f13e4c5"
        } ]
      }, {
        "title" : "Discharge Diagnosis",
        "code" : {
          "coding" : [ {
            "system" : "http://loinc.org",
            "code" : "11535-2",
            "display" : "Hospital Discharge Diagnosis"
          }, {
            "system" : "http://loinc.org",
            "code" : "78375-3",
            "display" : "Discharge Diagnosis"
          } ]
        },
        "text" : {
          "status" : "additional",
          "div" : "<div xmlns=\"http://www.w3.org/1999/xhtml\">Some text here</div>"
        },
        "entry" : [ {
          "fhir_comments" : [ "2.16.840.1.113883.10.20.22.4.33:2015-08-01" ],
          "reference" : "urn:uuid:6b0e7104-a12b-11ef-d133-09173f13e4c5"
        }, {
          "fhir_comments" : [ "2.16.840.1.113883.10.20.22.4.4", "2.16.840.1.113883.10.20.22.4.4:2015-08-01", "2.16.840.1.113883.10.20.15.2.3.3:2021-01-01" ],
          "extension" : [ {
            "fhir_comments" : [ "eICR Trigger Code Flag Extension" ],
            "url" : "http://hl7.org/fhir/us/ecr/StructureDefinition/eicr-trigger-code-flag-extension",
            "extension" : [ {
              "fhir_comments" : [ "eICR Trigger Code Flag Extension" ],
              "url" : "triggerCodeValueSet",
              "valueOid" : "urn:oid:2.16.840.1.114222.4.11.7508"
            }, {
              "fhir_comments" : [ "eICR Trigger Code Flag Extension" ],
              "url" : "triggerCodeValueSetVersion",
              "valueString" : "2020-11-13"
            }, {
              "fhir_comments" : [ "eICR Trigger Code Flag Extension" ],
              "url" : "triggerCode",
              "valueCoding" : {
                "system" : "http://snomed.info/sct",
                "code" : "27836007",
                "display" : "Pertussis (disorder)"
              }
            } ]
          } ],
          "reference" : "urn:uuid:6b0e710c-a12b-11ef-d133-09173f13e4c5"
        } ]
      }, {
        "title" : "REVIEW OF SYSTEMS",
        "code" : {
          "coding" : [ {
            "system" : "http://loinc.org",
            "code" : "10187-3",
            "display" : "REVIEW OF SYSTEMS"
          } ]
        },
        "text" : {
          "status" : "generated",
          "div" : "<div xmlns=\"http://www.w3.org/1999/xhtml\">\n                     <p>               Patient denies recent history of fever or malaise. Positive               For weakness and shortness of breath. One episode of melena. No recent               headaches. Positive for osteoarthritis in hips, knees and hands.             </p>\n                  </div>"
        }
      }, {
        "title" : "Problems",
        "code" : {
          "coding" : [ {
            "system" : "http://loinc.org",
            "code" : "11450-4",
            "display" : "Problem list - Reported"
          } ]
        },
        "text" : {
          "status" : "generated",
          "div" : "<div xmlns=\"http://www.w3.org/1999/xhtml\">\n                     <table>\n                        <thead>\n                           <tr>\n                              <th>Concern</th>\n                              <th>Concern Status</th>\n                              <th>Date(s)</th>\n                           </tr>\n                        </thead>\n                        <tbody>\n                           <tr>\n                              <td>Problem</td>\n                              <td>active</td>\n                              <td>NOV 7, 2020</td>\n                           </tr>\n                           <tr>\n                              <td>\n                                 <ul>\n                                    <li>\n                                       <table>\n                                          <thead>\n                                             <tr>\n                                                <th>Problem Type</th>\n                                                <th>Problem</th>\n                                                <th>Date(s)</th>\n                                             </tr>\n                                          </thead>\n                                          <tbody>\n                                             <tr>\n                                                <td>Symptom</td>\n                                                <td>Dark stools (finding)</td>\n                                                <td>NOV 1, 2020</td>\n                                             </tr>\n                                             <tr>\n                                                <td>Complaint</td>\n                                                <td>Paroxysmal cough (finding)</td>\n                                                <td>NOV 4, 2020</td>\n                                             </tr>\n                                          </tbody>\n                                       </table>\n                                    </li>\n                                 </ul>\n                              </td>\n                           </tr>\n                        </tbody>\n                     </table>\n                     <table>\n                        <thead>\n                           <tr>\n                              <th>Concern</th>\n                              <th>Concern Status</th>\n                              <th>Date(s)</th>\n                           </tr>\n                        </thead>\n                        <tbody>\n                           <tr>\n                              <td>Problem</td>\n                              <td>active</td>\n                              <td>MAY 23, 2020</td>\n                           </tr>\n                        </tbody>\n                     </table>\n                  </div>"
        },
        "entry" : [ {
          "fhir_comments" : [ "2.16.840.1.113883.10.20.22.4.4", "2.16.840.1.113883.10.20.22.4.4:2015-08-01" ],
          "reference" : "urn:uuid:6b0e716a-a12b-11ef-d133-09173f13e4c5"
        }, {
          "fhir_comments" : [ "2.16.840.1.113883.10.20.22.4.4", "2.16.840.1.113883.10.20.22.4.4:2015-08-01" ],
          "reference" : "urn:uuid:6b0e717a-a12b-11ef-d133-09173f13e4c5"
        }, {
          "fhir_comments" : [ "2.16.840.1.113883.10.20.22.4.4", "2.16.840.1.113883.10.20.22.4.4:2015-08-01" ],
          "reference" : "urn:uuid:6b0e7197-a12b-11ef-d133-09173f13e4c5"
        }, {
          "fhir_comments" : [ "2.16.840.1.113883.10.20.22.4.4", "2.16.840.1.113883.10.20.22.4.4:2015-08-01" ],
          "reference" : "urn:uuid:6b0e71a7-a12b-11ef-d133-09173f13e4c5"
        } ]
      }, {
        "title" : "Chief Complaint",
        "code" : {
          "coding" : [ {
            "system" : "http://loinc.org",
            "code" : "10154-3",
            "display" : "Chief complaint Narrative - Reported"
          } ]
        },
        "text" : {
          "status" : "generated",
          "div" : "<div xmlns=\"http://www.w3.org/1999/xhtml\">\n                     <p>Chief Complaint (the patient's own description): Headache and rash</p>\n                  </div>"
        }
      }, {
        "title" : "Reason for Visit",
        "code" : {
          "coding" : [ {
            "system" : "http://loinc.org",
            "code" : "29299-5",
            "display" : "Reason for visit Narrative"
          } ]
        },
        "text" : {
          "status" : "generated",
          "div" : "<div xmlns=\"http://www.w3.org/1999/xhtml\">\n                     <p>Reason for Visit (as documented by provider): Headache, rash, and fever</p>\n                  </div>"
        }
      }, {
        "title" : "Results",
        "code" : {
          "coding" : [ {
            "system" : "http://loinc.org",
            "code" : "30954-2",
            "display" : "Relevant diagnostic tests/laboratory data Narrative"
          } ]
        },
        "text" : {
          "status" : "generated",
          "div" : "<div xmlns=\"http://www.w3.org/1999/xhtml\">\n                     <table>\n                        <thead>\n                           <tr>\n                              <th>Results Panel</th>\n                              <th>Date(s)</th>\n                           </tr>\n                        </thead>\n                        <tbody>\n                           <tr>\n                              <td>CBC W Auto Differential panel in Blood</td>\n                              <td>NOV 7, 2020 to NOV 7, 2020</td>\n                           </tr>\n                           <tr>\n                              <td>\n                                 <ul>\n                                    <li>\n                                       <table>\n                                          <thead>\n                                             <tr>\n                                                <th>Test</th>\n                                                <th>Outcome</th>\n                                                <th>Interpretation</th>\n                                                <th>Date(s)</th>\n                                                <th>Reference Range</th>\n                                                <th>Reference Range Interpretation</th>\n                                                <th>Reference Range Description</th>\n                                             </tr>\n                                          </thead>\n                                          <tbody>\n                                             <tr>\n                                                <td>Hematocrit</td>\n                                                <td>35.3 %</td>\n                                                <td>Low</td>\n                                                <td>NOV 7, 2020</td>\n                                                <td>34.9 % to 44.5 %</td>\n                                                <td>Low</td>\n                                                <td>Low</td>\n                                             </tr>\n                                             <tr>\n                                                <td>Lymphocytes [#/​volume] in Blood by Automated count</td>\n                                                <td>5.2 10*3/uL</td>\n                                                <td>High</td>\n                                                <td>NOV 7, 2020</td>\n                                                <td>1.0 10*3/uL to 4.8 10*3/uL</td>\n                                                <td>Normal</td>\n                                                <td/>\n                                             </tr>\n                                          </tbody>\n                                       </table>\n                                    </li>\n                                 </ul>\n                              </td>\n                           </tr>\n                        </tbody>\n                     </table>\n                     <table>\n                        <thead>\n                           <tr>\n                              <th>Results Panel</th>\n                              <th>Date(s)</th>\n                           </tr>\n                        </thead>\n                        <tbody>\n                           <tr>\n                              <td>Bordetella pertussis Ab\n\t\t\t\t\t\t\t\t\t\t<br/>[Units/volume] in Serum\n\t\t\t\t\t\t\t\t\t</td>\n                              <td>NOV 7, 2020 to NOV 7, 2020</td>\n                           </tr>\n                           <tr>\n                              <td>\n                                 <ul>\n                                    <li>\n                                       <table>\n                                          <thead>\n                                             <tr>\n                                                <th>Initial Case Report Trigger\n\t\t\t\t\t\t\t\t\t\t\t\t\t\t\t\t<br/>Code Result Observation \n\t\t\t\t\t\t\t\t\t\t\t\t\t\t\t</th>\n                                                <th>Trigger Code</th>\n                                                <th>Trigger Code codeSystem</th>\n                                                <th>RCTC OID</th>\n                                                <th>RCTC Version</th>\n                                                <th>Outcome</th>\n                                                <th>Interpretation</th>\n                                                <th>Date(s)</th>\n                                                <th>Reference Range</th>\n                                                <th>Reference Range Interpretation</th>\n                                             </tr>\n                                          </thead>\n                                          <tbody>\n                                             <tr>\n                                                <td>Bordetella pertussis Ab\n\t\t\t\t\t\t\t\t\t\t\t\t\t\t\t\t<br/>[Units/volume] in Serum\n\t\t\t\t\t\t\t\t\t\t\t\t\t\t\t</td>\n                                                <td>11585-7</td>\n                                                <td>LOINC</td>\n                                                <td>2.16.840.1.114222.4.11.7508</td>\n                                                <td>19/05/2020</td>\n                                                <td>100 [iU]/mL</td>\n                                                <td>High</td>\n                                                <td>NOV 7, 2020</td>\n                                                <td> to 45 [iU]/mL</td>\n                                                <td>Normal</td>\n                                             </tr>\n                                          </tbody>\n                                       </table>\n                                    </li>\n                                 </ul>\n                              </td>\n                           </tr>\n                        </tbody>\n                     </table>\n                     <table>\n                        <thead>\n                           <tr>\n                              <th>Results Panel</th>\n                              <th>Date(s)</th>\n                           </tr>\n                        </thead>\n                        <tbody>\n                           <tr>\n                              <td>Bordetella pertussis [Presence]\n\t\t\t\t\t\t\t\t\t\t<br/>in Throat by Organism specific culture\n\t\t\t\t\t\t\t\t\t</td>\n                              <td>NOV 7, 2020 to NOV 7, 2020</td>\n                           </tr>\n                           <tr>\n                              <td>\n                                 <ul>\n                                    <li>\n                                       <table>\n                                          <thead>\n                                             <tr>\n                                                <th>Initial Case Report Trigger Code Result Observation </th>\n                                                <th>Trigger Code</th>\n                                                <th>Trigger Code codeSystem</th>\n                                                <th>RCTC OID</th>\n                                                <th>RCTC Version</th>\n                                                <th>Outcome</th>\n                                                <th>Trigger Code</th>\n                                                <th>Trigger Code codeSystem</th>\n                                                <th>RCTC OID</th>\n                                                <th>RCTC Version</th>\n                                                <th>Interpretation</th>\n                                                <th>Date(s)</th>\n                                             </tr>\n                                          </thead>\n                                          <tbody>\n                                             <tr>\n                                                <td>Bordetella pertussis [Presence]\n\t\t\t\t\t\t\t\t\t\t\t\t\t\t\t\t<br/>in Throat by Organism specific culture\n\t\t\t\t\t\t\t\t\t\t\t\t\t\t\t</td>\n                                                <td>548-8</td>\n                                                <td>LOINC</td>\n                                                <td>2.16.840.1.114222.4.11.7508</td>\n                                                <td>19/05/2020</td>\n                                                <td>Bordetella pertussis (organism)</td>\n                                                <td>5247005</td>\n                                                <td>SNOMED CT</td>\n                                                <td>2.16.840.1.114222.4.11.7508</td>\n                                                <td>19/05/2020</td>\n                                                <td>Abnormal</td>\n                                                <td>NOV 7, 2020</td>\n                                             </tr>\n                                          </tbody>\n                                       </table>\n                                    </li>\n                                 </ul>\n                              </td>\n                           </tr>\n                        </tbody>\n                     </table>\n                  </div>"
        },
        "entry" : [ {
          "fhir_comments" : [ "2.16.840.1.113883.10.20.22.4.1", "2.16.840.1.113883.10.20.22.4.1:2015-08-01", "2.16.840.1.113883.10.20.15.2.3.35:2022-05-01" ],
          "extension" : [ {
            "fhir_comments" : [ "eICR Trigger Code Flag Extension" ],
            "url" : "http://hl7.org/fhir/us/ecr/StructureDefinition/eicr-trigger-code-flag-extension",
            "extension" : [ {
              "fhir_comments" : [ "eICR Trigger Code Flag Extension" ],
              "url" : "triggerCodeValueSet",
              "valueOid" : "urn:oid:2.16.840.1.114222.4.11.7508"
            }, {
              "fhir_comments" : [ "eICR Trigger Code Flag Extension" ],
              "url" : "triggerCodeValueSetVersion",
              "valueString" : "2020-11-13"
            }, {
              "fhir_comments" : [ "eICR Trigger Code Flag Extension" ],
              "url" : "triggerCode",
              "valueCoding" : {
                "system" : "http://loinc.org",
                "code" : "57021-8",
                "display" : "CBC W Auto Differential panel - Blood"
              }
            } ]
          } ],
          "reference" : "urn:uuid:6b20b626-a12b-11ef-d133-09173f13e4c5"
        }, {
          "fhir_comments" : [ "2.16.840.1.113883.10.20.22.4.1", "2.16.840.1.113883.10.20.22.4.1:2015-08-01" ],
          "extension" : [ {
            "fhir_comments" : [ "eICR Trigger Code Flag Extension" ],
            "url" : "http://hl7.org/fhir/us/ecr/StructureDefinition/eicr-trigger-code-flag-extension",
            "extension" : [ {
              "fhir_comments" : [ "eICR Trigger Code Flag Extension" ],
              "url" : "triggerCodeValueSet",
              "valueOid" : "urn:oid:2.16.840.1.114222.4.11.7508"
            }, {
              "fhir_comments" : [ "eICR Trigger Code Flag Extension" ],
              "url" : "triggerCodeValueSetVersion",
              "valueString" : "2020-11-13"
            }, {
              "fhir_comments" : [ "eICR Trigger Code Flag Extension" ],
              "url" : "triggerCode",
              "valueCoding" : {
                "system" : "http://loinc.org",
                "code" : "94510-5",
                "display" : "SARS-CoV-2 (COVID-19) N gene [Cycle Threshold #] in Specimen by NAA with probe detection"
              }
            } ]
          } ],
          "reference" : "urn:uuid:6b20b677-a12b-11ef-d133-09173f13e4c5"
        } ]
      }, {
        "title" : "Procedures",
        "code" : {
          "coding" : [ {
            "system" : "http://loinc.org",
            "code" : "47519-4",
            "display" : "History of Procedures Document"
          } ]
        },
        "text" : {
          "status" : "additional",
          "div" : "<div xmlns=\"http://www.w3.org/1999/xhtml\">\n                     <table border=\"1\" width=\"100%\">\n                        <thead>\n                           <tr>\n                              <th>Procedure</th>\n                              <th>Date</th>\n                           </tr>\n                        </thead>\n                        <tbody>\n                           <tr>\n                              <td>Colonic polypectomy</td>\n                              <td>November 15, 2020</td>\n                           </tr>\n                        </tbody>\n                     </table>\n                  </div>"
        },
        "entry" : [ {
          "fhir_comments" : [ "2.16.840.1.113883.10.20.22.4.14:2014-06-09", "2.16.840.1.113883.10.20.22.4.14" ],
          "reference" : "urn:uuid:6b20b6bc-a12b-11ef-d133-09173f13e4c5"
        }, {
          "fhir_comments" : [ "2.16.840.1.113883.10.20.22.4.13:2014-06-09", "2.16.840.1.113883.10.20.22.4.13" ],
          "reference" : "urn:uuid:6b20b6c5-a12b-11ef-d133-09173f13e4c5"
        }, {
          "fhir_comments" : [ "2.16.840.1.113883.10.20.22.4.14:2014-06-09", "2.16.840.1.113883.10.20.15.2.3.44:2021-01-01" ],
          "extension" : [ {
            "fhir_comments" : [ "eICR Trigger Code Flag Extension" ],
            "url" : "http://hl7.org/fhir/us/ecr/StructureDefinition/eicr-trigger-code-flag-extension",
            "extension" : [ {
              "fhir_comments" : [ "eICR Trigger Code Flag Extension" ],
              "url" : "triggerCodeValueSet",
              "valueOid" : "urn:oid:2.16.840.1.114222.4.11.7508"
            }, {
              "fhir_comments" : [ "eICR Trigger Code Flag Extension" ],
              "url" : "triggerCodeValueSetVersion",
              "valueString" : "2020-11-13"
            }, {
              "fhir_comments" : [ "eICR Trigger Code Flag Extension" ],
              "url" : "triggerCode",
              "valueCoding" : {
                "system" : "http://snomed.info/sct",
                "code" : "233573008",
                "display" : "Extracorporeal membrane oxygenation (procedure)"
              }
            } ]
          } ],
          "reference" : "urn:uuid:6b20b6d3-a12b-11ef-d133-09173f13e4c5"
        }, {
          "fhir_comments" : [ "2.16.840.1.113883.10.20.22.4.12:2014-06-09", "2.16.840.1.113883.10.20.15.2.3.45:2021-01-01" ],
          "extension" : [ {
            "fhir_comments" : [ "eICR Trigger Code Flag Extension" ],
            "url" : "http://hl7.org/fhir/us/ecr/StructureDefinition/eicr-trigger-code-flag-extension",
            "extension" : [ {
              "fhir_comments" : [ "eICR Trigger Code Flag Extension" ],
              "url" : "triggerCodeValueSet",
              "valueOid" : "urn:oid:2.16.840.1.114222.4.11.7508"
            }, {
              "fhir_comments" : [ "eICR Trigger Code Flag Extension" ],
              "url" : "triggerCodeValueSetVersion",
              "valueString" : "2020-11-13"
            }, {
              "fhir_comments" : [ "eICR Trigger Code Flag Extension" ],
              "url" : "triggerCode",
              "valueCoding" : {
                "system" : "http://snomed.info/sct",
                "code" : "409524006",
                "display" : "Airborne precautions (procedure)"
              }
            } ]
          } ],
          "reference" : "urn:uuid:6b20b6df-a12b-11ef-d133-09173f13e4c5"
        }, {
          "fhir_comments" : [ "2.16.840.1.113883.10.20.22.4.13:2014-06-09", "2.16.840.1.113883.10.20.15.2.3.46:2021-01-01" ],
          "extension" : [ {
            "fhir_comments" : [ "eICR Trigger Code Flag Extension" ],
            "url" : "http://hl7.org/fhir/us/ecr/StructureDefinition/eicr-trigger-code-flag-extension",
            "extension" : [ {
              "fhir_comments" : [ "eICR Trigger Code Flag Extension" ],
              "url" : "triggerCodeValueSet",
              "valueOid" : "urn:oid:2.16.840.1.114222.4.11.7508"
            }, {
              "fhir_comments" : [ "eICR Trigger Code Flag Extension" ],
              "url" : "triggerCodeValueSetVersion",
              "valueString" : "2020-11-13"
            }, {
              "fhir_comments" : [ "eICR Trigger Code Flag Extension" ],
              "url" : "triggerCode",
              "valueCoding" : {
                "system" : "http://snomed.info/sct",
                "code" : "385857005",
                "display" : "Ventilator care and adjustment (regime/therapy)"
              }
            } ]
          } ],
          "reference" : "urn:uuid:6b20b6eb-a12b-11ef-d133-09173f13e4c5"
        } ]
      }, {
        "title" : "Immunizations",
        "code" : {
          "coding" : [ {
            "system" : "http://loinc.org",
            "code" : "11369-6",
            "display" : "History of Immunization Narrative"
          } ]
        },
        "text" : {
          "status" : "additional",
          "div" : "<div xmlns=\"http://www.w3.org/1999/xhtml\">\n                     <table>\n                        <thead>\n                           <tr>\n                              <th>Immunization</th>\n                              <th>Immunization Date</th>\n                           </tr>\n                        </thead>\n                        <tbody>\n                           <tr>\n                              <td>diphtheria, tetanus toxoids and acellular\n\t\t\t\t\t\t\t\t\t\t<br/>pertussis vaccine, 5 pertussis antigens\n\t\t\t\t\t\t\t\t\t</td>\n                              <td>NOV 11, 2020</td>\n                           </tr>\n                        </tbody>\n                     </table>\n                     <table>\n                        <thead>\n                           <tr>\n                              <th>Initial Case Report Trigger Code\n\t\t\t\t\t\t\t\t\t\t<br/>Immunization Medication Activity\n\t\t\t\t\t\t\t\t\t</th>\n                              <th>Immunization Date</th>\n                              <th>Trigger\n\t\t\t\t\t\t\t\t\t\t<br/>Code\n\t\t\t\t\t\t\t\t\t</th>\n                              <th>Trigger Code\n\t\t\t\t\t\t\t\t\t\t<br/>codeSystem\n\t\t\t\t\t\t\t\t\t</th>\n                              <th>RCTC OID</th>\n                              <th>RCTC\n\t\t\t\t\t\t\t\t\t\t<br/>Version\n\t\t\t\t\t\t\t\t\t</th>\n                           </tr>\n                        </thead>\n                        <tbody>\n                           <tr>\n                              <td>influenza virus vaccine, unspecified formulation</td>\n                              <td>NOV 11, 2020</td>\n                              <td>88</td>\n                              <td>CVX</td>\n                              <td>2.16.840.1.114222.4.11.7508</td>\n                              <td>19/05/2020</td>\n                           </tr>\n                        </tbody>\n                     </table>\n                     <table>\n                        <thead>\n                           <tr>\n                              <th>Vaccinne Credential Patient Assertion</th>\n                              <th>Assertion Date</th>\n                           </tr>\n                        </thead>\n                        <tbody>\n                           <tr>\n                              <td>Yes</td>\n                              <td>NOV 11, 2020</td>\n                           </tr>\n                        </tbody>\n                     </table>\n                  </div>"
        },
        "entry" : [ {
          "fhir_comments" : [ "2.16.840.1.113883.10.20.22.4.52:2015-08-01" ],
          "reference" : "urn:uuid:6b20b731-a12b-11ef-d133-09173f13e4c5"
        }, {
          "fhir_comments" : [ "2.16.840.1.113883.10.20.22.4.52:2015-08-01" ],
          "extension" : [ {
            "fhir_comments" : [ "eICR Trigger Code Flag Extension" ],
            "url" : "http://hl7.org/fhir/us/ecr/StructureDefinition/eicr-trigger-code-flag-extension",
            "extension" : [ {
              "fhir_comments" : [ "eICR Trigger Code Flag Extension" ],
              "url" : "triggerCodeValueSet",
              "valueOid" : "urn:oid:2.16.840.1.114222.4.11.7508"
            }, {
              "fhir_comments" : [ "eICR Trigger Code Flag Extension" ],
              "url" : "triggerCodeValueSetVersion",
              "valueString" : "2020-11-13"
            }, {
              "fhir_comments" : [ "eICR Trigger Code Flag Extension" ],
              "url" : "triggerCode",
              "valueCoding" : {
                "system" : "urn:oid:2.16.840.1.113883.12.292",
                "code" : "24",
                "display" : "anthrax vaccine"
              }
            } ]
          } ],
          "reference" : "urn:uuid:6b20b742-a12b-11ef-d133-09173f13e4c5"
        }, {
          "fhir_comments" : [ "2.16.840.1.113883.10.20.15.2.3.55:2021-01-01" ],
          "reference" : "urn:uuid:6b20b755-a12b-11ef-d133-09173f13e4c5"
        } ]
      }, {
        "title" : "Social History",
        "code" : {
          "coding" : [ {
            "system" : "http://loinc.org",
            "code" : "29762-2",
            "display" : "Social history Narrative"
          } ]
        },
        "text" : {
          "status" : "additional",
          "div" : "<div xmlns=\"http://www.w3.org/1999/xhtml\">\n                     <table>\n                        <thead>\n                           <tr>\n                              <th>Birth Sex</th>\n                              <th>Value</th>\n                              <th>Date</th>\n                           </tr>\n                        </thead>\n                        <tbody>\n                           <tr>\n                              <td>Sex Assigned At Birth</td>\n                              <td>Female</td>\n                              <td>NOV 24, 1974</td>\n                           </tr>\n                        </tbody>\n                     </table>\n                     <table>\n                        <thead>\n                           <tr>\n                              <th>Gender identity</th>\n                              <th>Date</th>\n                           </tr>\n                        </thead>\n                        <tbody>\n                           <tr>\n                              <td>Female-to-male transsexual (finding)</td>\n                              <td>JAN 1, 2020</td>\n                           </tr>\n                        </tbody>\n                     </table>\n                     <table>\n                        <thead>\n                           <tr>\n                              <th>Characteristics of Home Environment</th>\n                              <th>Date</th>\n                           </tr>\n                        </thead>\n                        <tbody>\n                           <tr>\n                              <td>Homeless</td>\n                              <td>NOV 9, 2020</td>\n                           </tr>\n                        </tbody>\n                     </table>\n                     <table>\n                        <thead>\n                           <tr>\n                              <th>Exposure/Contact Information</th>\n                              <th>Date</th>\n                              <th>Location</th>\n                              <th>Address</th>\n                           </tr>\n                        </thead>\n                        <tbody>\n                           <tr>\n                              <td>Mass Gathering: Football game</td>\n                              <td>November 11, 2020</td>\n                              <td>City Football Stadium</td>\n                              <td>99 Football Stadium Road, My City, AZ, 8562</td>\n                           </tr>\n                        </tbody>\n                     </table>\n                     <table>\n                        <thead>\n                           <tr>\n                              <th>Current Occupation</th>\n                              <th>Current Industry</th>\n                              <th>Current Job Title</th>\n                              <th>Current Employer Name</th>\n                              <th>Current Employer Address</th>\n                              <th>Current Employer Telcom</th>\n                              <th>Occupational Exposure</th>\n                           </tr>\n                        </thead>\n                        <tbody>\n                           <tr>\n                              <td>Nursing, psychiatric, and home health aides</td>\n                              <td>Accounting, tax preparation, bookkeeping, and payroll services</td>\n                              <td>Nurse</td>\n                              <td>University Hospital</td>\n                              <td>Peachtree Street, Atlanta, Georgia</td>\n                              <td>555-1212</td>\n                              <td>Nursing care facilities</td>\n                              <td>Asbestos</td>\n                           </tr>\n                        </tbody>\n                     </table>\n                     <table>\n                        <thead>\n                           <tr>\n                              <th>Usual Occupation</th>\n                              <th>Usual Industry</th>\n                           </tr>\n                        </thead>\n                        <tbody>\n                           <tr>\n                              <td>Nursing, psychiatric, and home health aides</td>\n                              <td>Nursing care facilities</td>\n                           </tr>\n                        </tbody>\n                     </table>\n                     <table>\n                        <thead>\n                           <tr>\n                              <th>Travel History: Date(s)</th>\n                              <th>Notes</th>\n                              <th>Location</th>\n                           </tr>\n                        </thead>\n                        <tbody>\n                           <tr>\n                              <td>1999 to 2007</td>\n                              <td>Spent 8 years in the UK during the BSE outbreak</td>\n                              <td/>\n                           </tr>\n                           <tr>\n                              <td>In the 3 weeks before NOV 9, 2020</td>\n                              <td/>\n                              <td>\n                                 <ul>\n                                    <li>Brazil</li>\n                                 </ul>\n                              </td>\n                           </tr>\n                           <tr>\n                              <td>APR 25, 2020 to APR 30, 2020</td>\n                              <td/>\n                              <td>\n                                 <ul>\n                                    <li>Nadi, FJ</li>\n                                 </ul>\n                              </td>\n                           </tr>\n                           <tr>\n                              <td>MAY 6, 2020 to MAY 15, 2020</td>\n                              <td/>\n                              <td>\n                                 <ul>\n                                    <li>Montreal, QC, CA</li>\n                                 </ul>\n                              </td>\n                           </tr>\n                           <tr>\n                              <td>JUL 13, 2020 to JUL 15, 2020</td>\n                              <td/>\n                              <td>\n                                 <ul>\n                                    <li>Sydney, NSW, AU</li>\n                                 </ul>\n                              </td>\n                           </tr>\n                           <tr>\n                              <td>OCT 22, 2020 to OCT 30, 2020</td>\n                              <td/>\n                              <td>\n                                 <ul>\n                                    <li>1170 N Rancho Robles Rd Oracle, AZ8562, US</li>\n                                 </ul>\n                              </td>\n                           </tr>\n                        </tbody>\n                     </table>\n                     <table>\n                        <thead>\n                           <tr>\n                              <th>Country of Residence</th>\n                           </tr>\n                        </thead>\n                        <tbody>\n                           <tr>\n                              <td>United Kingdom of Great Britain and Northern Ireland</td>\n                           </tr>\n                        </tbody>\n                     </table>\n                     <table>\n                        <thead>\n                           <tr>\n                              <th>Country of Nationality</th>\n                           </tr>\n                        </thead>\n                        <tbody>\n                           <tr>\n                              <td>Australia</td>\n                           </tr>\n                        </tbody>\n                     </table>\n                  </div>"
        },
        "entry" : [ {
          "fhir_comments" : [ "2.16.840.1.113883.10.20.22.4.109" ],
          "reference" : "urn:uuid:6b20b7ff-a12b-11ef-d133-09173f13e4c5"
        }, {
          "fhir_comments" : [ "2.16.840.1.113883.10.20.15.2.3.52:2021-01-01" ],
          "reference" : "urn:uuid:6b20b809-a12b-11ef-d133-09173f13e4c5"
        }, {
          "fhir_comments" : [ "2.16.840.1.113883.10.20.15.2.3.52:2021-01-01" ],
          "reference" : "urn:uuid:6b20b821-a12b-11ef-d133-09173f13e4c5"
        }, {
          "fhir_comments" : [ "2.16.840.1.113883.10.20.15.2.3.52:2021-01-01" ],
          "reference" : "urn:uuid:6b20b833-a12b-11ef-d133-09173f13e4c5"
        }, {
          "fhir_comments" : [ "2.16.840.1.113883.10.20.15.2.3.1:2022-05-01" ],
          "reference" : "urn:uuid:6b20b84c-a12b-11ef-d133-09173f13e4c5"
        }, {
          "fhir_comments" : [ "2.16.840.1.113883.10.20.15.2.3.1:2022-05-01" ],
          "reference" : "urn:uuid:6b20b859-a12b-11ef-d133-09173f13e4c5"
        }, {
          "fhir_comments" : [ "2.16.840.1.113883.10.20.15.2.3.1:2022-05-01" ],
          "reference" : "urn:uuid:6b20b869-a12b-11ef-d133-09173f13e4c5"
        }, {
          "fhir_comments" : [ "2.16.840.1.113883.10.20.15.2.3.1:2022-05-01" ],
          "reference" : "urn:uuid:6b20b8a8-a12b-11ef-d133-09173f13e4c5"
        }, {
          "fhir_comments" : [ "2.16.840.1.113883.10.20.15.2.3.1:2021-01-01" ],
          "reference" : "urn:uuid:6b20b8ba-a12b-11ef-d133-09173f13e4c5"
        }, {
          "fhir_comments" : [ "2.16.840.1.113883.10.20.15.2.3.1:2021-01-01" ],
          "reference" : "urn:uuid:6b20b8cb-a12b-11ef-d133-09173f13e4c5"
        }, {
          "fhir_comments" : [ "2.16.840.1.113883.10.20.15.2.3.53:2021-01-01" ],
          "reference" : "urn:uuid:6b20b8dd-a12b-11ef-d133-09173f13e4c5"
        }, {
          "fhir_comments" : [ "2.16.840.1.113883.10.20.15.2.3.54:2021-01-01" ],
          "reference" : "urn:uuid:6b20b8e6-a12b-11ef-d133-09173f13e4c5"
        }, {
          "fhir_comments" : [ "2.16.840.1.113883.10.20.15.2.3.47:2021-01-01" ],
          "reference" : "urn:uuid:6b20b8ee-a12b-11ef-d133-09173f13e4c5"
        }, {
          "fhir_comments" : [ "2.16.840.1.113883.10.20.22.4.221:2020-09-01" ],
          "reference" : "urn:uuid:6b20b904-a12b-11ef-d133-09173f13e4c5"
        }, {
          "fhir_comments" : [ "2.16.840.1.113883.10.20.22.4.217:2020-09-01" ],
          "reference" : "urn:uuid:6b20b91e-a12b-11ef-d133-09173f13e4c5"
        }, {
          "fhir_comments" : [ "2.16.840.1.113883.10.20.22.4.212:2017-11-30" ],
          "reference" : "urn:uuid:6b20b952-a12b-11ef-d133-09173f13e4c5"
        }, {
          "fhir_comments" : [ "2.16.840.1.113883.10.20.15.2.3.50:2021-01-01" ],
          "reference" : "urn:uuid:6b20b882-a12b-11ef-d133-09173f13e4c5"
        } ]
      }, {
        "title" : "Pregnancy Section",
        "code" : {
          "coding" : [ {
            "system" : "http://loinc.org",
            "code" : "90767-5",
            "display" : "Pregnancy summary Document"
          } ]
        },
        "text" : {
          "status" : "generated",
          "div" : "<div xmlns=\"http://www.w3.org/1999/xhtml\">\n                     <table>\n                        <thead>\n                           <tr>\n                              <th>Pregnancy Status</th>\n                              <th>Date(s) over which status holds\n\t\t\t\t\t\t\t\t\t\t<br/>(if no high date, status was\n\t\t\t\t\t\t\t\t\t\t<br/>current at time of recording)\n\t\t\t\t\t\t\t\t\t</th>\n                              <th>Determination Method</th>\n                              <th>Determination Date</th>\n                              <th>Recorded Date</th>\n                           </tr>\n                        </thead>\n                        <tbody>\n                           <tr>\n                              <td>Pregnant</td>\n                              <td>AUG 26, 2017</td>\n                              <td>Diagnostic ultrasonography</td>\n                              <td>OCT 1, 2017</td>\n                              <td>OCT 1, 2017 10:35</td>\n                           </tr>\n                           <tr>\n                              <td>\n                                 <ul>\n                                    <li>\n                                       <table>\n                                          <thead>\n                                             <tr>\n                                                <th>Estimated Date of Delivery</th>\n                                                <th>EDD</th>\n                                                <th>EDD Determination Date</th>\n                                             </tr>\n                                          </thead>\n                                          <tbody>\n                                             <tr>\n                                                <td>Delivery date estimated from ovulation date</td>\n                                                <td>MAY 22, 2017</td>\n                                                <td>OCT 1, 2017 10:15</td>\n                                             </tr>\n                                          </tbody>\n                                       </table>\n                                       <table>\n                                          <thead>\n                                             <tr>\n                                                <th>Estimated Gestational Age of Pregnancy</th>\n                                                <th>Days</th>\n                                                <th>Determination Date</th>\n                                             </tr>\n                                          </thead>\n                                          <tbody>\n                                             <tr>\n                                                <td>Gestational age Estimated from selected delivery date</td>\n                                                <td>143 d</td>\n                                                <td>OCT 1, 2017 10:15</td>\n                                             </tr>\n                                             <tr>\n                                                <td>\n                                                   <ul>\n                                                      <li>\n                                                         <table>\n                                                            <thead>\n                                                               <tr>\n                                                                  <th>Reference to selected delivery date</th>\n                                                               </tr>\n                                                            </thead>\n                                                            <tbody>\n                                                               <tr>\n                                                                  <td/>\n                                                               </tr>\n                                                            </tbody>\n                                                         </table>\n                                                      </li>\n                                                   </ul>\n                                                </td>\n                                             </tr>\n                                          </tbody>\n                                       </table>\n                                       <table>\n                                          <thead>\n                                             <tr>\n                                                <th>Pregnancy Outcome</th>\n                                                <th>Birth Order</th>\n                                                <th>Time</th>\n                                                <th>Method of Delivery</th>\n                                             </tr>\n                                          </thead>\n                                          <tbody>\n                                             <tr>\n                                                <td>Stillbirth (finding)</td>\n                                                <td>1</td>\n                                                <td>JAN 5, 2020 08:50</td>\n                                                <td>Breech delivery (procedure)</td>\n                                             </tr>\n                                             <tr>\n                                                <td>Term birth of newborn (finding)</td>\n                                                <td>2</td>\n                                                <td>JAN 5, 2020 10:05</td>\n                                                <td>Breech delivery (procedure)</td>\n                                             </tr>\n                                          </tbody>\n                                       </table>\n                                    </li>\n                                 </ul>\n                              </td>\n                           </tr>\n                        </tbody>\n                     </table>\n                     <table>\n                        <thead>\n                           <tr>\n                              <th>Last menstrual period start date</th>\n                              <th>Observation Date</th>\n                           </tr>\n                        </thead>\n                        <tbody>\n                           <tr>\n                              <td>AUG 1, 2017</td>\n                              <td>JAN 5, 2020 10:15</td>\n                           </tr>\n                        </tbody>\n                     </table>\n                     <table>\n                        <thead>\n                           <tr>\n                              <th>Postpartum Status</th>\n                              <th>Observation date</th>\n                           </tr>\n                        </thead>\n                        <tbody>\n                           <tr>\n                              <td>Mid postpartum state (finding)</td>\n                              <td>JAN 5, 2020 10:15</td>\n                           </tr>\n                        </tbody>\n                     </table>\n                  </div>"
        },
        "entry" : [ {
          "fhir_comments" : [ "2.16.840.1.113883.10.20.15.3.8", "2.16.840.1.113883.10.20.22.4.293:2020-04-01" ],
          "reference" : "urn:uuid:6b20b9c5-a12b-11ef-d133-09173f13e4c5"
        }, {
          "fhir_comments" : [ "2.16.840.1.113883.10.20.30.3.34:2014-06-09" ],
          "reference" : "urn:uuid:6b20ba13-a12b-11ef-d133-09173f13e4c5"
        }, {
          "fhir_comments" : [ "2.16.840.1.113883.10.20.22.4.285:2020-04-01" ],
          "reference" : "urn:uuid:6b20ba1e-a12b-11ef-d133-09173f13e4c5"
        }, {
          "fhir_comments" : [ "2.16.840.1.113883.10.20.22.4.284:2020-04-01" ],
          "reference" : "urn:uuid:6b20ba07-a12b-11ef-d133-09173f13e4c5"
        }, {
          "fhir_comments" : [ "2.16.840.1.113883.10.20.22.4.284:2020-04-01" ],
          "reference" : "urn:uuid:6b20ba07-a12b-11ef-d133-09173f13e4c5"
        } ]
      }, {
        "title" : "Vital Signs (Last Filed)",
        "code" : {
          "coding" : [ {
            "system" : "http://loinc.org",
            "code" : "8716-3",
            "display" : "Vital Signs"
          } ]
        },
        "text" : {
          "status" : "generated",
          "div" : "<div xmlns=\"http://www.w3.org/1999/xhtml\">\n                     <table>\n                        <thead>\n                           <tr>\n                              <th>Date</th>\n                              <th>Blood Pressure</th>\n                              <th>Pulse</th>\n                              <th>Temperature</th>\n                              <th>Respiratory Rate</th>\n                              <th>Height</th>\n                              <th>Weight</th>\n                              <th>BMI</th>\n                              <th>SpO2</th>\n                           </tr>\n                        </thead>\n                        <tbody>\n                           <tr>\n                              <td>05/20/2014 7:36pm</td>\n                              <td>\n                                 <span>120</span>/\n\t\t\t\t\t\t\t\t\t\t<span>80</span>mm[Hg] \n\t\t\t\t\t\t\t\t\t</td>\n                              <td>80 /min</td>\n                              <td>99.0 F</td>\n                              <td>18 /min</td>\n                              <td>5'7 (67 inches)</td>\n                              <td>239.9 lbs</td>\n                              <td>37.58 kg/m2</td>\n                              <td>98%</td>\n                           </tr>\n                        </tbody>\n                     </table>\n                  </div>"
        },
        "entry" : [ {
          "fhir_comments" : [ "2.16.840.1.113883.10.20.22.4.26", "2.16.840.1.113883.10.20.22.4.26:2015-08-01" ],
          "reference" : "urn:uuid:6b20ba56-a12b-11ef-d133-09173f13e4c5"
        } ]
      }, {
        "title" : "Emergency Outbreak Information Section",
        "code" : {
          "coding" : [ {
            "system" : "http://loinc.org",
            "code" : "83910-0",
            "display" : "Public health Note"
          } ]
        },
        "text" : {
          "status" : "generated",
          "div" : "<div xmlns=\"http://www.w3.org/1999/xhtml\">\n                     <table>\n                        <thead>\n                           <tr>\n                              <th>Information Type</th>\n                              <th>Information Date</th>\n                              <th>Result</th>\n                           </tr>\n                        </thead>\n                        <tbody>\n                           <tr>\n                              <td>Employee desk distance from mail sorter</td>\n                              <td>1 November 2020</td>\n                              <td>2 meters</td>\n                           </tr>\n                        </tbody>\n                     </table>\n                  </div>"
        },
        "entry" : [ {
          "fhir_comments" : [ "2.16.840.1.113883.10.20.15.2.3.40:2021-01-01" ],
          "reference" : "urn:uuid:6b20bade-a12b-11ef-d133-09173f13e4c5"
        }, {
          "fhir_comments" : [ "2.16.840.1.113883.10.20.15.2.3.40:2021-01-01" ],
          "reference" : "urn:uuid:6b20baf3-a12b-11ef-d133-09173f13e4c5"
        }, {
          "fhir_comments" : [ "2.16.840.1.113883.10.20.15.2.3.40:2021-01-01" ],
          "reference" : "urn:uuid:6b20bae8-a12b-11ef-d133-09173f13e4c5"
        }, {
          "fhir_comments" : [ "2.16.840.1.113883.10.20.15.2.3.40:2021-01-01" ],
          "reference" : "urn:uuid:6b20bafd-a12b-11ef-d133-09173f13e4c5"
        } ]
      }, {
        "title" : "Reportability Response Information Section",
        "code" : {
          "coding" : [ {
            "system" : "http://loinc.org",
            "code" : "88085-6",
            "display" : "Reportability response report Document Public health"
          } ]
        },
        "text" : {
          "status" : "generated",
          "div" : "<div xmlns=\"http://www.w3.org/1999/xhtml\">\n                     <table>\n                        <thead>\n                           <tr>\n                              <th>TODO</th>\n                           </tr>\n                        </thead>\n                        <tbody>\n                           <tr>\n                              <td>TODO</td>\n                           </tr>\n                        </tbody>\n                     </table>\n                  </div>"
        },
        "entry" : [ {
          "fhir_comments" : [ "2.16.840.1.113883.10.20.15.2.3.12:2017-04-01" ],
          "reference" : "urn:uuid:6b20bb20-a12b-11ef-d133-09173f13e4c5"
        }, {
          "fhir_comments" : [ "2.16.840.1.113883.10.20.15.2.3.13:2017-04-01" ],
          "reference" : "urn:uuid:6b20bb2a-a12b-11ef-d133-09173f13e4c5"
        }, {
          "fhir_comments" : [ "2.16.840.1.113883.10.20.15.2.3.26:2017-04-01" ],
          "reference" : "urn:uuid:6b20bb7a-a12b-11ef-d133-09173f13e4c5"
        }, {
          "fhir_comments" : [ "2.16.840.1.113883.10.20.15.2.3.27:2017-04-01" ],
          "reference" : "urn:uuid:6b20bb83-a12b-11ef-d133-09173f13e4c5"
        } ]
      }, {
        "title" : "ReportabilityResponseInformationSection",
        "code" : {
          "coding" : [ {
            "system" : "http://loinc.org",
            "code" : "88085-6"
          } ]
        },
        "text" : {
          "extension" : [ {
            "url" : "http://hl7.org/fhir/StructureDefinition/data-absent-reason",
            "valueCode" : "masked"
          } ],
          "status" : "empty",
          "div" : "<div xmlns=\"http://www.w3.org/1999/xhtml\"><p>MASKED</p></div>"
        },
        "entry" : [ {
          "reference" : "Observation/observation-rr-relevant-reportable-condition-observation"
        } ]
      } ]
    }
  }, {
    "fullUrl" : "urn:uuid:6b0c9adc-a12b-11ef-d133-09173f13e4c5",
    "resource" : {
      "resourceType" : "Patient",
      "meta" : {
        "profile" : [ "http://hl7.org/fhir/us/ecr/StructureDefinition/us-ph-patient" ]
      },
      "text" : {
        "status" : "generated",
        "div" : "<div xmlns=\"http://www.w3.org/1999/xhtml\">\n                  <h1>Everywoman, Eve H</h1>\n                  <p>Alternate name: Everywoman, Ruth L</p>\n                  <p>Telecom: tel:+1-555-555-2003</p>\n                  <p>Telecom: tel:+1-555-555-2004</p>\n                  <p>Address: 2222 Home Street<br/>COOK<br/>SOUTH HOLLAND<br/>IL<br/>60473<br/>USA<br/>\n                  </p>\n                  <p>Gender: F</p>\n                  <p>Birthdate: 1974-11-24</p>\n                  <p>Language: en</p>\n               </div>"
      },
      "extension" : [ {
        "url" : "http://hl7.org/fhir/us/core/StructureDefinition/us-core-race",
        "extension" : [ {
          "url" : "ombCategory",
          "valueCoding" : {
            "system" : "urn:oid:2.16.840.1.113883.6.238",
            "code" : "2106-3",
            "display" : "White"
          }
        }, {
          "url" : "text",
          "valueString" : "White"
        } ]
      }, {
        "url" : "http://hl7.org/fhir/us/core/StructureDefinition/us-core-ethnicity",
        "extension" : [ {
          "url" : "ombCategory",
          "valueCoding" : {
            "system" : "urn:oid:2.16.840.1.113883.6.238",
            "code" : "@code",
            "display" : "Not Hispanic or Latino"
          }
        }, {
          "url" : "text",
          "valueString" : "Not Hispanic or Latino"
        } ]
      }, {
        "url" : "http://hl7.org/fhir/us/core/StructureDefinition/us-core-birthsex",
        "valueCode" : "F"
      }, {
        "url" : "http://hl7.org/fhir/us/ecr/StructureDefinition/us-ph-genderidentity-extension",
        "extension" : [ {
          "url" : "value",
          "valueCodeableConcept" : {
            "coding" : [ {
              "system" : "http://snomed.info/sct",
              "code" : "407377005",
              "display" : "Female-to-male transsexual (finding)"
            } ]
          }
        }, {
          "url" : "period",
          "valuePeriod" : {
            "start" : "2020-01-01"
          }
        } ]
      }, {
        "fhir_comments" : [ "US Public Health Tribal Affiliation Extension" ],
        "url" : "http://hl7.org/fhir/us/ecr/StructureDefinition/us-ph-tribal-affiliation-extension",
        "extension" : [ {
          "fhir_comments" : [ "US Public Health Tribal Affiliation Extension" ],
          "url" : "TribeName",
          "valueCoding" : {
            "system" : "http://terminology.hl7.org/CodeSystem/v3-TribalEntityUS",
            "code" : "91",
            "display" : "Fort Mojave Indian Tribe of Arizona, California & Nevada"
          }
        }, {
          "fhir_comments" : [ "US Public Health Tribal Affiliation Extension" ],
          "url" : "EnrolledTribeMember",
          "valueBoolean" : true
        } ]
      } ],
      "identifier" : [ {
        "system" : "urn:oid:2.16.840.1.113883.19.5",
        "value" : "123453"
      }, {
        "system" : "http://hl7.org/fhir/sid/us-ssn",
        "value" : "444-22-2222"
      } ],
      "name" : [ {
        "use" : "usual",
        "family" : "Everywoman",
        "given" : [ "Eve", "H" ]
      }, {
        "family" : "Everywoman",
        "given" : [ "Ruth", "L" ]
      } ],
      "telecom" : [ {
        "system" : "phone",
        "value" : "+1-555-555-2003",
        "use" : "home"
      }, {
        "system" : "phone",
        "value" : "+1-555-555-2004",
        "use" : "work"
      } ],
      "gender" : "female",
      "birthDate" : "1974-11-24",
      "deceasedBoolean" : false,
      "address" : [ {
        "use" : "home",
        "line" : [ "2222 Home Street" ],
        "city" : "SOUTH HOLLAND",
        "district" : "COOK",
        "state" : "IL",
        "postalCode" : "60473",
        "country" : "USA",
        "period" : {
          "start" : "2023-05-09"
        }
      } ],
      "contact" : [ {
        "relationship" : [ {
          "coding" : [ {
            "system" : "http://terminology.hl7.org/CodeSystem/v3-RoleClass",
            "code" : "GUARD"
          } ]
        } ],
        "name" : {
          "use" : "usual",
          "family" : "Mum",
          "given" : [ "Martha", "L" ]
        },
        "telecom" : [ {
          "system" : "phone",
          "value" : "+1-555-555-2006",
          "use" : "home"
        }, {
          "system" : "email",
          "value" : "mail@guardian.com"
        } ],
        "address" : {
          "use" : "home",
          "line" : [ "4444 Home Street" ],
          "city" : "Chicago",
          "state" : "IL",
          "postalCode" : "60638",
          "country" : "US"
        }
      } ],
      "communication" : [ {
        "language" : {
          "coding" : [ {
            "system" : "urn:ietf:bcp:47",
            "code" : "en"
          } ]
        },
        "preferred" : true
      } ]
    }
  }, {
    "fullUrl" : "urn:uuid:6b0e6ee3-a12b-11ef-d133-09173f13e4c5",
    "resource" : {
      "resourceType" : "Encounter",
      "meta" : {
        "profile" : [ "http://hl7.org/fhir/us/ecr/StructureDefinition/eicr-encounter" ]
      },
      "text" : {
        "status" : "generated",
        "div" : "<div xmlns=\"http://www.w3.org/1999/xhtml\">\n                  <table>\n                     <thead>\n                        <tr>\n                           <th>Encounter</th>\n                           <th>Date(s)</th>\n                           <th>Location</th>\n                        </tr>\n                     </thead>\n                     <tbody>\n                        <tr>\n                           <td>Office outpatient visit 15 minutes</td>\n                           <td>NOV 7, 2020</td>\n                           <td>\n                              <ul>\n                                 <li>\n                                    <span class=\"Italics\">Urgent Care Center</span>\n                                 </li>\n                              </ul>\n                           </td>\n                        </tr>\n                        <tr>\n                           <td>\n                              <ul>\n                                 <li>\n                                    <table>\n                                       <thead>\n                                          <tr>\n                                             <th>Encounter Diagnosis Type</th>\n                                          </tr>\n                                       </thead>\n                                       <tbody>\n                                          <tr>\n                                             <td>Diagnosis</td>\n                                          </tr>\n                                          <tr>\n                                             <td>\n                                                <ul>\n                                                   <li>\n                                                      <table>\n                                                         <thead>\n                                                            <tr>\n                                                               <th>Initial Case Report Trigger\n\t\t\t\t\t\t\t\t\t\t\t\t\t\t\t\t\t\t\t\t\t\t<br/>Code Problem Observation \n\t\t\t\t\t\t\t\t\t\t\t\t\t\t\t\t\t\t\t\t\t</th>\n                                                               <th>Problem</th>\n                                                               <th>Trigger Code</th>\n                                                               <th>Trigger Code codeSystem</th>\n                                                               <th>RCTC OID</th>\n                                                               <th>RCTC Version</th>\n                                                               <th>Date(s)</th>\n                                                            </tr>\n                                                         </thead>\n                                                         <tbody>\n                                                            <tr>\n                                                               <td>Diagnosis</td>\n                                                               <td>Pertussis (disorder)</td>\n                                                               <td>27836007</td>\n                                                               <td>SNOMED CT</td>\n                                                               <td>2.16.840.1.114222.4.11.7508</td>\n                                                               <td>19/05/2020</td>\n                                                               <td>NOV 7, 2020</td>\n                                                            </tr>\n                                                         </tbody>\n                                                      </table>\n                                                      <table>\n                                                         <thead>\n                                                            <tr>\n                                                               <th>Encounter Diagnosis Type</th>\n                                                            </tr>\n                                                         </thead>\n                                                         <tbody>\n                                                            <tr>\n                                                               <td>Diagnosis</td>\n                                                            </tr>\n                                                            <tr>\n                                                               <td>\n                                                                  <ul>\n                                                                     <li>\n                                                                        <table>\n                                                                           <thead>\n                                                                              <tr>\n                                                                                 <th>Problem Type</th>\n                                                                                 <th>Problem</th>\n                                                                                 <th>Date(s)</th>\n                                                                              </tr>\n                                                                           </thead>\n                                                                           <tbody>\n                                                                              <tr>\n                                                                                 <td>Diagnosis</td>\n                                                                                 <td>A non-trigger code diagnosis (disorder)</td>\n                                                                                 <td>NOV 7, 2020</td>\n                                                                              </tr>\n                                                                           </tbody>\n                                                                        </table>\n                                                                     </li>\n                                                                  </ul>\n                                                               </td>\n                                                            </tr>\n                                                         </tbody>\n                                                      </table>\n                                                   </li>\n                                                </ul>\n                                             </td>\n                                          </tr>\n                                       </tbody>\n                                    </table>\n                                 </li>\n                              </ul>\n                           </td>\n                        </tr>\n                     </tbody>\n                  </table>\n                  <p>...</p>\n               </div>"
      },
      "identifier" : [ {
        "fhir_comments" : [ "INFO: Id from encompassingEncounter" ],
        "system" : "urn:oid:2.16.840.1.113883.19",
        "value" : "9937012"
      } ],
      "status" : "finished",
      "class" : {
        "system" : "http://terminology.hl7.org/CodeSystem/v3-ActCode",
        "code" : "AMB"
      },
      "type" : [ {
        "coding" : [ {
          "system" : "http://terminology.hl7.org/CodeSystem/v3-ActCode",
          "code" : "AMB",
          "display" : "Ambulatory"
        } ]
      }, {
        "coding" : [ {
          "system" : "http://www.ama-assn.org/go/cpt",
          "code" : "99213",
          "display" : "Office or other outpatient visit for the evaluation and management of an established patient, which requires a medically appropriate history and/or examination and low level of medical decision making. When using time for code selection, 20-29 minutes of total time is spent on the date of the encounter."
        } ]
      } ],
      "subject" : {
        "reference" : "urn:uuid:6b0c9adc-a12b-11ef-d133-09173f13e4c5"
      },
      "participant" : [ {
        "type" : [ {
          "coding" : [ {
            "system" : "http://terminology.hl7.org/CodeSystem/v3-ParticipationType",
            "code" : "ATND"
          } ]
        } ],
        "individual" : {
          "reference" : "urn:uuid:6b0e6ef2-a12b-11ef-d133-09173f13e4c5"
        }
      } ],
      "period" : {
        "start" : "2020-11-07T08:44:21.000-05:00",
        "end" : "2020-11-08T11:21:03.000-05:00"
      },
      "diagnosis" : [ {
        "extension" : [ {
          "fhir_comments" : [ "eICR Trigger Code Flag Extension" ],
          "url" : "http://hl7.org/fhir/us/ecr/StructureDefinition/eicr-trigger-code-flag-extension",
          "extension" : [ {
            "fhir_comments" : [ "eICR Trigger Code Flag Extension" ],
            "url" : "triggerCodeValueSet",
            "valueOid" : "urn:oid:2.16.840.1.114222.4.11.7508"
          }, {
            "fhir_comments" : [ "eICR Trigger Code Flag Extension" ],
            "url" : "triggerCodeValueSetVersion",
            "valueString" : "2020-11-13"
          }, {
            "fhir_comments" : [ "eICR Trigger Code Flag Extension" ],
            "url" : "triggerCode",
            "valueCoding" : {
              "system" : "http://snomed.info/sct",
              "code" : "27836007",
              "display" : "Pertussis (disorder)"
            }
          } ]
        } ],
        "condition" : {
          "reference" : "urn:uuid:6b0e6ff9-a12b-11ef-d133-09173f13e4c5",
          "_reference" : {
            "fhir_comments" : [ "2.16.840.1.113883.10.20.22.4.4", "2.16.840.1.113883.10.20.22.4.4:2015-08-01", "2.16.840.1.113883.10.20.15.2.3.3:2021-01-01" ]
          }
        }
      }, {
        "condition" : {
          "reference" : "urn:uuid:6b0e7011-a12b-11ef-d133-09173f13e4c5",
          "_reference" : {
            "fhir_comments" : [ "2.16.840.1.113883.10.20.22.4.4", "2.16.840.1.113883.10.20.22.4.4:2015-08-01" ]
          }
        }
      } ],
      "location" : [ {
        "location" : {
          "reference" : "urn:uuid:6b0e6f17-a12b-11ef-d133-09173f13e4c5"
        }
      } ],
      "serviceProvider" : {
        "reference" : "urn:uuid:6b0e6f27-a12b-11ef-d133-09173f13e4c5"
      }
    }
  }, {
    "fullUrl" : "urn:uuid:6b0e6ef2-a12b-11ef-d133-09173f13e4c5",
    "resource" : {
      "resourceType" : "PractitionerRole",
      "meta" : {
        "profile" : [ "http://hl7.org/fhir/us/ecr/StructureDefinition/us-ph-practitionerrole" ]
      },
      "identifier" : [ {
        "fhir_comments" : [ "/ClinicalDocument[cda:id[@root=\"2.16.840.1.113883.9.9.9.9.9\"][@extension=\"db734647-fc99-424c-a864-7e3cda82e704\"]]/componentOf/encompassingEncounter[cda:id[@root=\"2.16.840.1.113883.19\"][@extension=\"9937012\"]]/responsibleParty/assignedEntity[cda:id[@root=\"2.16.840.1.113883.4.6\"][@extension=\"6666666666666\"]]" ],
        "system" : "http://hl7.org/fhir/sid/us-npi",
        "value" : "6666666666666"
      } ],
      "practitioner" : {
        "reference" : "urn:uuid:6b0e6f02-a12b-11ef-d133-09173f13e4c5"
      },
      "organization" : {
        "reference" : "urn:uuid:6b0e6f0b-a12b-11ef-d133-09173f13e4c5"
      },
      "telecom" : [ {
        "system" : "phone",
        "value" : "+1(555)555-1003",
        "use" : "work"
      }, {
        "system" : "fax",
        "value" : "+1(555)555-1234",
        "use" : "work"
      }, {
        "system" : "email",
        "value" : "mail@provider_domain.com",
        "use" : "work"
      } ]
    }
  }, {
    "fullUrl" : "urn:uuid:6b0e6f02-a12b-11ef-d133-09173f13e4c5",
    "resource" : {
      "resourceType" : "Practitioner",
      "meta" : {
        "profile" : [ "http://hl7.org/fhir/us/core/StructureDefinition/us-core-practitioner" ]
      },
      "identifier" : [ {
        "system" : "http://hl7.org/fhir/sid/us-npi",
        "value" : "6666666666666"
      } ],
      "name" : [ {
        "family" : "Seven",
        "given" : [ "Henry" ],
        "suffix" : [ "M.D." ]
      } ],
      "telecom" : [ {
        "system" : "phone",
        "value" : "+1(555)555-1003",
        "use" : "work"
      }, {
        "system" : "fax",
        "value" : "+1(555)555-1234",
        "use" : "work"
      }, {
        "system" : "email",
        "value" : "mail@provider_domain.com",
        "use" : "work"
      } ],
      "address" : [ {
        "line" : [ "1002 Healthcare Drive" ],
        "city" : "CHICAGO",
        "state" : "IL",
        "postalCode" : "60612",
        "country" : "USA"
      } ]
    }
  }, {
    "fullUrl" : "urn:uuid:6b0e6f0b-a12b-11ef-d133-09173f13e4c5",
    "resource" : {
      "resourceType" : "Organization",
      "meta" : {
        "profile" : [ "http://hl7.org/fhir/us/ecr/StructureDefinition/us-ph-organization" ]
      },
      "active" : true,
      "name" : "Community Health and Hospitals",
      "telecom" : [ {
        "system" : "phone",
        "value" : "+1(555)555-1003",
        "use" : "work"
      }, {
        "system" : "fax",
        "value" : "+1(555)555-1234",
        "use" : "work"
      }, {
        "system" : "email",
        "value" : "mail@provider_domain.com",
        "use" : "work"
      } ],
      "address" : [ {
        "line" : [ "1002 Healthcare Drive" ],
        "city" : "CHICAGO",
        "state" : "IL",
        "postalCode" : "60612",
        "country" : "USA"
      } ]
    }
  }, {
    "fullUrl" : "urn:uuid:6b0e6f17-a12b-11ef-d133-09173f13e4c5",
    "resource" : {
      "resourceType" : "Location",
      "meta" : {
        "profile" : [ "http://hl7.org/fhir/us/ecr/StructureDefinition/us-ph-location" ]
      },
      "identifier" : [ {
        "system" : "http://hl7.org/fhir/sid/us-npi",
        "value" : "77777777777"
      } ],
      "name" : "Good Health Hospital",
      "type" : [ {
        "coding" : [ {
          "system" : "http://terminology.hl7.org/CodeSystem/v3-RoleCode",
          "code" : "OF",
          "display" : "Outpatient facility"
        } ]
      } ],
      "telecom" : [ {
        "system" : "phone",
        "value" : "1+(555)-555-1212",
        "use" : "work"
      }, {
        "system" : "fax",
        "value" : "1+(555)-555-3333",
        "use" : "work"
      } ],
      "address" : {
        "line" : [ "1002 Healthcare Drive" ],
        "city" : "CHICAGO",
        "state" : "IL",
        "postalCode" : "60612",
        "country" : "USA"
      }
    }
  }, {
    "fullUrl" : "urn:uuid:6b0e6f27-a12b-11ef-d133-09173f13e4c5",
    "resource" : {
      "resourceType" : "Organization",
      "meta" : {
        "profile" : [ "http://hl7.org/fhir/us/ecr/StructureDefinition/us-ph-organization" ]
      },
      "identifier" : [ {
        "system" : "http://hl7.org/fhir/sid/us-npi",
        "value" : "77777777777"
      } ],
      "active" : true,
      "name" : "Good Health Hospital",
      "telecom" : [ {
        "system" : "phone",
        "value" : "1+(555)-555-1212",
        "use" : "work"
      }, {
        "system" : "fax",
        "value" : "1+(555)-555-3333",
        "use" : "work"
      } ],
      "address" : [ {
        "line" : [ "1002 Healthcare Drive" ],
        "city" : "CHICAGO",
        "state" : "IL",
        "postalCode" : "60612",
        "country" : "USA"
      } ]
    }
  }, {
    "fhir_comments" : [ "INFO: cda:assignedAuthoringDevice" ],
    "fullUrl" : "urn:uuid:6b0e6ec7-a12b-11ef-d133-09173f13e4c5",
    "resource" : {
      "resourceType" : "Device",
      "identifier" : [ {
        "system" : "urn:ietf:rfc:3986",
        "value" : "urn:oid:2.16.840.1.113883.3.72.5.20"
      } ],
      "modelNumber" : "Acme",
      "_modelNumber" : {
        "fhir_comments" : [ "INFO: cda:assignedAuthoringDevice" ]
      },
      "version" : [ {
        "value" : "Acme EHR"
      } ],
      "location" : {
        "reference" : "urn:uuid:6b0e6ebc-a12b-11ef-d133-09173f13e4c5"
      }
    }
  }, {
    "fullUrl" : "urn:uuid:6b0e6ebc-a12b-11ef-d133-09173f13e4c5",
    "resource" : {
      "resourceType" : "Location",
      "telecom" : [ {
        "system" : "phone",
        "value" : "+1-(555)555-1212;ext=9998",
        "use" : "work"
      } ],
      "address" : {
        "line" : [ "1002 Healthcare Drive" ],
        "city" : "CHICAGO",
        "state" : "IL",
        "postalCode" : "60612",
        "country" : "USA"
      }
    }
  }, {
    "fullUrl" : "urn:uuid:6b0e6ecd-a12b-11ef-d133-09173f13e4c5",
    "resource" : {
      "resourceType" : "Organization",
      "meta" : {
        "profile" : [ "http://hl7.org/fhir/us/ecr/StructureDefinition/us-ph-organization" ]
      },
      "identifier" : [ {
        "system" : "http://hl7.org/fhir/sid/us-npi",
        "value" : "88888888"
      } ],
      "active" : true,
      "name" : "Good Health Hospital",
      "telecom" : [ {
        "system" : "phone",
        "value" : "+1(555)555-1212",
        "use" : "work"
      } ],
      "address" : [ {
        "line" : [ "1002 Healthcare Drive" ],
        "city" : "CHICAGO",
        "state" : "IL",
        "postalCode" : "60612",
        "country" : "USA"
      } ]
    }
  }, {
    "fullUrl" : "urn:uuid:6b0e6f5c-a12b-11ef-d133-09173f13e4c5",
    "resource" : {
      "resourceType" : "ServiceRequest",
      "meta" : {
        "profile" : [ "http://hl7.org/fhir/us/ecr/StructureDefinition/eicr-servicerequest" ]
      },
      "identifier" : [ {
        "system" : "urn:ietf:rfc:3986",
        "value" : "urn:uuid:b52bee94-c34b-4e2c-8c15-5ad9d6def205"
      } ],
      "status" : "active",
      "intent" : "order",
      "code" : {
        "coding" : [ {
          "system" : "http://loinc.org",
          "code" : "80825-3",
          "display" : "Zika virus envelope E gene [Presence] in Serum by NAA with probe detection"
        } ]
      },
      "subject" : {
        "reference" : "urn:uuid:6b0c9adc-a12b-11ef-d133-09173f13e4c5"
      },
      "occurrenceDateTime" : "2020-11-08"
    }
  }, {
    "fhir_comments" : [ "Planned Procedure" ],
    "fullUrl" : "urn:uuid:6b0e6f6d-a12b-11ef-d133-09173f13e4c5",
    "resource" : {
      "resourceType" : "ServiceRequest",
      "meta" : {
        "profile" : [ "http://hl7.org/fhir/us/ecr/StructureDefinition/eicr-servicerequest" ]
      },
      "identifier" : [ {
        "system" : "urn:ietf:rfc:3986",
        "value" : "urn:uuid:9a6d1bac-17d3-4195-89c4-1121bc809b5a"
      } ],
      "status" : "active",
      "intent" : "order",
      "code" : {
        "coding" : [ {
          "system" : "http://snomed.info/sct",
          "code" : "233573008",
          "display" : "Extracorporeal membrane oxygenation (procedure)"
        } ]
      },
      "subject" : {
        "reference" : "urn:uuid:6b0c9adc-a12b-11ef-d133-09173f13e4c5"
      },
      "occurrenceDateTime" : "2020-11-08"
    }
  }, {
    "fullUrl" : "urn:uuid:6b0e6f7a-a12b-11ef-d133-09173f13e4c5",
    "resource" : {
      "resourceType" : "ServiceRequest",
      "meta" : {
        "profile" : [ "http://hl7.org/fhir/us/ecr/StructureDefinition/eicr-servicerequest" ]
      },
      "identifier" : [ {
        "system" : "urn:ietf:rfc:3986",
        "value" : "urn:uuid:7658963e-54da-496f-bf18-dea1dddaa3b0"
      } ],
      "status" : "active",
      "intent" : "plan",
      "code" : {
        "coding" : [ {
          "system" : "http://snomed.info/sct",
          "code" : "409524006",
          "display" : "Airborne precautions (procedure)"
        } ]
      },
      "subject" : {
        "reference" : "urn:uuid:6b0c9adc-a12b-11ef-d133-09173f13e4c5"
      },
      "occurrenceDateTime" : "2020-11-08"
    }
  }, {
    "fullUrl" : "urn:uuid:6b0e6f86-a12b-11ef-d133-09173f13e4c5",
    "resource" : {
      "resourceType" : "ServiceRequest",
      "meta" : {
        "profile" : [ "http://hl7.org/fhir/us/ecr/StructureDefinition/eicr-servicerequest" ]
      },
      "identifier" : [ {
        "system" : "urn:ietf:rfc:3986",
        "value" : "urn:uuid:b52bee94-c34b-4e2c-8c15-5ad9d6def204"
      } ],
      "status" : "active",
      "intent" : "plan",
      "code" : {
        "coding" : [ {
          "system" : "http://snomed.info/sct",
          "code" : "385857005",
          "display" : "Ventilator care and adjustment (regime/therapy)"
        } ]
      },
      "subject" : {
        "reference" : "urn:uuid:6b0c9adc-a12b-11ef-d133-09173f13e4c5"
      },
      "occurrenceDateTime" : "2020-11-08"
    }
  }, {
    "fullUrl" : "urn:uuid:6b0e6ff9-a12b-11ef-d133-09173f13e4c5",
    "resource" : {
      "resourceType" : "Condition",
      "meta" : {
        "profile" : [ "http://hl7.org/fhir/us/ecr/StructureDefinition/us-ph-condition" ]
      },
      "identifier" : [ {
        "system" : "urn:ietf:rfc:3986",
        "value" : "urn:uuid:db734647-fc99-424c-a864-7e3cda82e705"
      } ],
      "clinicalStatus" : {
        "coding" : [ {
          "system" : "http://terminology.hl7.org/CodeSystem/condition-clinical",
          "code" : "active"
        } ]
      },
      "category" : [ {
        "coding" : [ {
          "system" : "http://terminology.hl7.org/CodeSystem/condition-category",
          "code" : "encounter-diagnosis"
        } ]
      } ],
      "code" : {
        "coding" : [ {
          "system" : "http://snomed.info/sct",
          "code" : "27836007",
          "display" : "Pertussis (disorder)"
        } ]
      },
      "subject" : {
        "reference" : "urn:uuid:6b0c9adc-a12b-11ef-d133-09173f13e4c5"
      },
      "onsetDateTime" : "2020-11-07"
    }
  }, {
    "fullUrl" : "urn:uuid:6b0e7011-a12b-11ef-d133-09173f13e4c5",
    "resource" : {
      "resourceType" : "Condition",
      "meta" : {
        "profile" : [ "http://hl7.org/fhir/us/ecr/StructureDefinition/us-ph-condition" ]
      },
      "identifier" : [ {
        "system" : "urn:ietf:rfc:3986",
        "value" : "urn:uuid:db734647-fc99-424c-a864-7e3cda82e704"
      } ],
      "clinicalStatus" : {
        "coding" : [ {
          "system" : "http://terminology.hl7.org/CodeSystem/condition-clinical",
          "code" : "active"
        } ]
      },
      "category" : [ {
        "coding" : [ {
          "system" : "http://terminology.hl7.org/CodeSystem/condition-category",
          "code" : "encounter-diagnosis"
        } ]
      } ],
      "code" : {
        "coding" : [ {
          "system" : "http://snomed.info/sct",
          "code" : "282291009",
          "display" : "Diagnosis interpretation"
        } ]
      },
      "subject" : {
        "reference" : "urn:uuid:6b0c9adc-a12b-11ef-d133-09173f13e4c5"
      },
      "onsetDateTime" : "2020-11-07"
    }
  }, {
    "fullUrl" : "urn:uuid:6b0e7045-a12b-11ef-d133-09173f13e4c5",
    "resource" : {
      "resourceType" : "MedicationAdministration",
      "extension" : [ {
        "fhir_comments" : [ "US Public Health Therapeutic Medication Response Extension" ],
        "url" : "http://hl7.org/fhir/us/ecr/StructureDefinition/us-ph-therapeutic-medication-response-extension",
        "valueCodeableConcept" : {
          "coding" : [ {
            "system" : "http://snomed.info/sct",
            "code" : "268910001",
            "display" : "Patient's condition improved (finding)"
          } ]
        }
      } ],
      "identifier" : [ {
        "system" : "urn:ietf:rfc:3986",
        "value" : "urn:uuid:6c844c75-aa34-411c-b7bd-5e4a9f206e29"
      } ],
      "status" : "completed",
      "medicationReference" : {
        "reference" : "urn:uuid:6b0e7050-a12b-11ef-d133-09173f13e4c5"
      },
      "subject" : {
        "reference" : "urn:uuid:6b0c9adc-a12b-11ef-d133-09173f13e4c5"
      },
      "effectiveDateTime" : "2020-11-07T11:59:00.000-07:00",
      "dosage" : {
        "route" : {
          "coding" : [ {
            "system" : "http://ncimeta.nci.nih.gov",
            "code" : "C38288",
            "display" : "ORAL"
          } ]
        },
        "dose" : {
          "value" : 1,
          "unit" : "g"
        }
      }
    }
  }, {
    "fullUrl" : "urn:uuid:6b0e7050-a12b-11ef-d133-09173f13e4c5",
    "resource" : {
      "resourceType" : "Medication",
      "meta" : {
        "profile" : [ "http://hl7.org/fhir/us/core/StructureDefinition/us-core-medication" ]
      },
      "code" : {
        "coding" : [ {
          "system" : "http://www.nlm.nih.gov/research/umls/rxnorm",
          "code" : "248656",
          "display" : "Azithromycin 500 MG Oral Tablet"
        } ]
      }
    }
  }, {
    "fullUrl" : "urn:uuid:6b0e706c-a12b-11ef-d133-09173f13e4c5",
    "resource" : {
      "resourceType" : "MedicationAdministration",
      "identifier" : [ {
        "system" : "urn:ietf:rfc:3986",
        "value" : "urn:uuid:6c844c75-aa34-411c-b7bd-5e4a9f206e29"
      } ],
      "status" : "completed",
      "medicationReference" : {
        "reference" : "urn:uuid:6b0e7078-a12b-11ef-d133-09173f13e4c5"
      },
      "subject" : {
        "reference" : "urn:uuid:6b0c9adc-a12b-11ef-d133-09173f13e4c5"
      },
      "supportingInformation" : [ {
        "reference" : "urn:uuid:6b0e707f-a12b-11ef-d133-09173f13e4c5"
      } ],
      "effectivePeriod" : {
        "start" : "2012-03-18"
      },
      "dosage" : {
        "route" : {
          "coding" : [ {
            "system" : "http://ncimeta.nci.nih.gov",
            "code" : "C38288",
            "display" : "ORAL"
          } ]
        },
        "dose" : {
          "value" : 1
        }
      }
    }
  }, {
    "fullUrl" : "urn:uuid:6b0e7078-a12b-11ef-d133-09173f13e4c5",
    "resource" : {
      "resourceType" : "Medication",
      "meta" : {
        "profile" : [ "http://hl7.org/fhir/us/core/StructureDefinition/us-core-medication" ]
      },
      "code" : {
        "coding" : [ {
          "system" : "http://www.nlm.nih.gov/research/umls/rxnorm",
          "code" : "197380",
          "display" : "Atenolol 25 MG Oral Tablet"
        } ]
      }
    }
  }, {
    "fullUrl" : "urn:uuid:6b0e707f-a12b-11ef-d133-09173f13e4c5",
    "resource" : {
      "resourceType" : "Observation",
      "fhir_comments" : [ "Processing as generic observation: 2.16.840.1.113883.10.20.22.4.9:" ],
      "identifier" : [ {
        "system" : "urn:ietf:rfc:3986",
        "value" : "urn:uuid:4adc1020-7b14-11db-9fe1-0800200c9a64"
      } ],
      "status" : "final",
      "code" : {
        "coding" : [ {
          "system" : "http://terminology.hl7.org/CodeSystem/v3-ActCode",
          "code" : "ASSERTION"
        } ]
      },
      "subject" : {
        "reference" : "urn:uuid:6b0c9adc-a12b-11ef-d133-09173f13e4c5"
      },
      "effectivePeriod" : {
        "start" : "2008-02-26T08:05:00.000-08:00",
        "end" : "2008-02-28T12:05:00.000-08:00"
      },
      "issued" : "2020-11-07T09:44:21.000-05:00",
      "_issued" : {
        "fhir_comments" : [ "INFO: Using document effective time as issued date" ]
      },
      "valueCodeableConcept" : {
        "coding" : [ {
          "system" : "http://snomed.info/sct",
          "code" : "422587007",
          "display" : "Nausea"
        } ]
      }
    }
  }, {
    "fullUrl" : "urn:uuid:6b0e708b-a12b-11ef-d133-09173f13e4c5",
    "resource" : {
      "resourceType" : "MedicationAdministration",
      "identifier" : [ {
        "system" : "urn:ietf:rfc:3986",
        "value" : "urn:uuid:6c844c75-aa34-411c-b7bd-5e4a9f206e29"
      } ],
      "status" : "in-progress",
      "medicationReference" : {
        "reference" : "urn:uuid:6b0e7097-a12b-11ef-d133-09173f13e4c5"
      },
      "subject" : {
        "reference" : "urn:uuid:6b0c9adc-a12b-11ef-d133-09173f13e4c5"
      },
      "effectivePeriod" : {
        "start" : "2012-03-18"
      },
      "dosage" : {
        "route" : {
          "coding" : [ {
            "system" : "http://ncimeta.nci.nih.gov",
            "code" : "C38288",
            "display" : "ORAL"
          } ]
        },
        "dose" : {
          "value" : 1
        }
      }
    }
  }, {
    "fullUrl" : "urn:uuid:6b0e7097-a12b-11ef-d133-09173f13e4c5",
    "resource" : {
      "resourceType" : "Medication",
      "meta" : {
        "profile" : [ "http://hl7.org/fhir/us/core/StructureDefinition/us-core-medication" ]
      },
      "code" : {
        "coding" : [ {
          "system" : "http://www.nlm.nih.gov/research/umls/rxnorm",
          "code" : "197380",
          "display" : "Atenolol 25 MG Oral Tablet"
        } ]
      }
    }
  }, {
    "fullUrl" : "urn:uuid:6b0e709e-a12b-11ef-d133-09173f13e4c5",
    "resource" : {
      "resourceType" : "MedicationAdministration",
      "identifier" : [ {
        "system" : "urn:ietf:rfc:3986",
        "value" : "urn:uuid:6c844c75-aa34-411c-b7bd-5e4a9f206e29"
      } ],
      "status" : "in-progress",
      "medicationReference" : {
        "reference" : "urn:uuid:6b0e70aa-a12b-11ef-d133-09173f13e4c5"
      },
      "subject" : {
        "reference" : "urn:uuid:6b0c9adc-a12b-11ef-d133-09173f13e4c5"
      },
      "effectivePeriod" : {
        "start" : "2012-03-18"
      },
      "dosage" : {
        "route" : {
          "coding" : [ {
            "system" : "http://ncimeta.nci.nih.gov",
            "code" : "C38288",
            "display" : "ORAL"
          } ]
        },
        "dose" : {
          "value" : 1
        }
      }
    }
  }, {
    "fullUrl" : "urn:uuid:6b0e70b3-a12b-11ef-d133-09173f13e4c5",
    "resource" : {
      "resourceType" : "PractitionerRole",
      "meta" : {
        "profile" : [ "http://hl7.org/fhir/us/ecr/StructureDefinition/us-ph-practitionerrole" ]
      },
      "identifier" : [ {
        "fhir_comments" : [ "/ClinicalDocument[cda:id[@root=\"2.16.840.1.113883.9.9.9.9.9\"][@extension=\"db734647-fc99-424c-a864-7e3cda82e704\"]]/component/structuredBody/component/section/entry/substanceAdministration[cda:id[@root=\"6c844c75-aa34-411c-b7bd-5e4a9f206e29\"]]/author/assignedAuthor[cda:id[@root=\"20cf14fb-b65c-4c8c-a54d-b0cca834c18c\"]]" ],
        "system" : "urn:ietf:rfc:3986",
        "value" : "urn:uuid:20cf14fb-b65c-4c8c-a54d-b0cca834c18c"
      } ],
      "practitioner" : {
        "reference" : "urn:uuid:6b0e70b6-a12b-11ef-d133-09173f13e4c5"
      },
      "organization" : {
        "reference" : "urn:uuid:6b0e70bb-a12b-11ef-d133-09173f13e4c5"
      },
      "code" : [ {
        "coding" : [ {
          "system" : "urn:oid:2.16.840.1.113883.5.53",
          "code" : "163W00000X",
          "display" : "Registered nurse"
        } ]
      } ],
      "telecom" : [ {
        "system" : "other",
        "_value" : {
          "extension" : [ {
            "url" : "http://hl7.org/fhir/StructureDefinition/data-absent-reason",
            "valueCode" : "unknown"
          } ]
        }
      } ]
    }
  }, {
    "fullUrl" : "urn:uuid:6b0e70b6-a12b-11ef-d133-09173f13e4c5",
    "resource" : {
      "resourceType" : "Practitioner",
      "meta" : {
        "profile" : [ "http://hl7.org/fhir/us/core/StructureDefinition/us-core-practitioner" ]
      },
      "identifier" : [ {
        "system" : "urn:ietf:rfc:3986",
        "value" : "urn:uuid:20cf14fb-b65c-4c8c-a54d-b0cca834c18c"
      } ],
      "name" : [ {
        "family" : "Nightingale",
        "given" : [ "Nurse" ],
        "suffix" : [ "RN" ]
      } ]
    }
  }, {
    "fullUrl" : "urn:uuid:6b0e70bb-a12b-11ef-d133-09173f13e4c5",
    "resource" : {
      "resourceType" : "Organization",
      "meta" : {
        "profile" : [ "http://hl7.org/fhir/us/ecr/StructureDefinition/us-ph-organization" ]
      },
      "identifier" : [ {
        "system" : "urn:ietf:rfc:3986",
        "value" : "urn:oid:2.16.840.1.113883.19.5"
      } ],
      "active" : true,
      "name" : "Good Health Hospital",
      "telecom" : [ {
        "extension" : [ {
          "url" : "http://hl7.org/fhir/StructureDefinition/data-absent-reason",
          "valueCode" : "unknown"
        } ]
      } ],
      "address" : [ {
        "extension" : [ {
          "url" : "http://hl7.org/fhir/StructureDefinition/data-absent-reason",
          "valueCode" : "unknown"
        } ]
      } ]
    }
  }, {
    "fullUrl" : "urn:uuid:6b0e70b0-a12b-11ef-d133-09173f13e4c5",
    "resource" : {
      "resourceType" : "Provenance",
      "target" : [ {
        "reference" : "urn:uuid:6b0e709e-a12b-11ef-d133-09173f13e4c5"
      } ],
      "recorded" : "2013-08-01T12:35:00.000-08:00",
      "agent" : [ {
        "type" : {
          "coding" : [ {
            "system" : "http://terminology.hl7.org/CodeSystem/provenance-participant-type",
            "code" : "author"
          } ]
        },
        "who" : {
          "reference" : "urn:uuid:6b0e70b3-a12b-11ef-d133-09173f13e4c5"
        }
      } ]
    }
  }, {
    "fullUrl" : "urn:uuid:6b0e70aa-a12b-11ef-d133-09173f13e4c5",
    "resource" : {
      "resourceType" : "Medication",
      "meta" : {
        "profile" : [ "http://hl7.org/fhir/us/core/StructureDefinition/us-core-medication" ]
      },
      "code" : {
        "coding" : [ {
          "system" : "http://www.nlm.nih.gov/research/umls/rxnorm",
          "code" : "380845",
          "display" : "ibuprofen 0.05 MG/MG"
        } ]
      }
    }
  }, {
    "fhir_comments" : [ "WARNING: No template match for 2.16.840.1.113883.10.20.22.4.36: 2014-06-09" ],
    "fullUrl" : "urn:uuid:6b0e70ea-a12b-11ef-d133-09173f13e4c5",
    "resource" : {
      "resourceType" : "Condition",
      "meta" : {
        "profile" : [ "http://hl7.org/fhir/us/ecr/StructureDefinition/us-ph-condition" ]
      },
      "identifier" : [ {
        "system" : "urn:ietf:rfc:3986",
        "value" : "urn:uuid:db734647-fc99-424c-a864-7e3cda82e705"
      } ],
      "clinicalStatus" : {
        "coding" : [ {
          "system" : "http://terminology.hl7.org/CodeSystem/condition-clinical",
          "code" : "active"
        } ]
      },
      "category" : [ {
        "coding" : [ {
          "system" : "http://terminology.hl7.org/CodeSystem/condition-category",
          "code" : "problem-list-item"
        } ]
      } ],
      "code" : {
        "coding" : [ {
          "system" : "http://snomed.info/sct",
          "code" : "27836007",
          "display" : "Pertussis (disorder)"
        } ]
      },
      "subject" : {
        "reference" : "urn:uuid:6b0c9adc-a12b-11ef-d133-09173f13e4c5"
      },
      "onsetDateTime" : "2020-11-07"
    }
  }, {
    "fhir_comments" : [ "WARNING: No template match for 2.16.840.1.113883.10.20.22.4.33: 2015-08-01" ],
    "fullUrl" : "urn:uuid:6b0e716a-a12b-11ef-d133-09173f13e4c5",
    "resource" : {
      "resourceType" : "Condition",
      "meta" : {
        "profile" : [ "http://hl7.org/fhir/us/ecr/StructureDefinition/us-ph-condition" ]
      },
      "identifier" : [ {
        "system" : "urn:ietf:rfc:3986",
        "value" : "urn:uuid:ab1791b0-5c71-11db-b0de-0800200c9a66"
      } ],
      "clinicalStatus" : {
        "coding" : [ {
          "system" : "http://terminology.hl7.org/CodeSystem/condition-clinical",
          "code" : "active"
        } ]
      },
      "category" : [ {
        "coding" : [ {
          "system" : "http://terminology.hl7.org/CodeSystem/condition-category",
          "code" : "problem-list-item"
        } ]
      } ],
      "code" : {
        "coding" : [ {
          "system" : "http://snomed.info/sct",
          "code" : "35064005",
          "display" : "Dark stools (finding)"
        } ]
      },
      "subject" : {
        "reference" : "urn:uuid:6b0c9adc-a12b-11ef-d133-09173f13e4c5"
      },
      "onsetDateTime" : "2020-11-01",
      "recordedDate" : "2020-11-07"
    }
  }, {
    "fullUrl" : "urn:uuid:6b0e717a-a12b-11ef-d133-09173f13e4c5",
    "resource" : {
      "resourceType" : "Condition",
      "meta" : {
        "profile" : [ "http://hl7.org/fhir/us/ecr/StructureDefinition/us-ph-condition" ]
      },
      "identifier" : [ {
        "system" : "urn:ietf:rfc:3986",
        "value" : "urn:uuid:ab1791b0-5c71-11db-b0de-0800200c9a67"
      } ],
      "clinicalStatus" : {
        "coding" : [ {
          "system" : "http://terminology.hl7.org/CodeSystem/condition-clinical",
          "code" : "active"
        } ]
      },
      "category" : [ {
        "coding" : [ {
          "system" : "http://terminology.hl7.org/CodeSystem/condition-category",
          "code" : "problem-list-item"
        } ]
      } ],
      "code" : {
        "coding" : [ {
          "system" : "http://snomed.info/sct",
          "code" : "43025008",
          "display" : "Paroxysmal cough (finding)"
        } ]
      },
      "subject" : {
        "reference" : "urn:uuid:6b0c9adc-a12b-11ef-d133-09173f13e4c5"
      },
      "onsetDateTime" : "2020-11-04",
      "recordedDate" : "2020-11-07"
    }
  }, {
    "fullUrl" : "urn:uuid:6b0e7197-a12b-11ef-d133-09173f13e4c5",
    "resource" : {
      "resourceType" : "Condition",
      "meta" : {
        "profile" : [ "http://hl7.org/fhir/us/ecr/StructureDefinition/us-ph-condition" ]
      },
      "identifier" : [ {
        "system" : "urn:ietf:rfc:3986",
        "value" : "urn:uuid:ab1791b0-5c71-11db-b0de-0800200c9a66"
      } ],
      "clinicalStatus" : {
        "coding" : [ {
          "system" : "http://terminology.hl7.org/CodeSystem/condition-clinical",
          "code" : "active"
        } ]
      },
      "category" : [ {
        "coding" : [ {
          "system" : "http://terminology.hl7.org/CodeSystem/condition-category",
          "code" : "problem-list-item"
        } ]
      } ],
      "code" : {
        "coding" : [ {
          "system" : "http://snomed.info/sct",
          "code" : "35064005",
          "display" : "Dark stools (finding)"
        } ]
      },
      "subject" : {
        "reference" : "urn:uuid:6b0c9adc-a12b-11ef-d133-09173f13e4c5"
      },
      "onsetDateTime" : "2020-11-01",
      "recordedDate" : "2020-05-23"
    }
  }, {
    "fullUrl" : "urn:uuid:6b0e71a7-a12b-11ef-d133-09173f13e4c5",
    "resource" : {
      "resourceType" : "Condition",
      "meta" : {
        "profile" : [ "http://hl7.org/fhir/us/ecr/StructureDefinition/us-ph-condition" ]
      },
      "identifier" : [ {
        "system" : "urn:ietf:rfc:3986",
        "value" : "urn:uuid:ab1791b0-5c71-11db-b0de-0800200c9a67"
      } ],
      "clinicalStatus" : {
        "coding" : [ {
          "system" : "http://terminology.hl7.org/CodeSystem/condition-clinical",
          "code" : "active"
        } ]
      },
      "category" : [ {
        "coding" : [ {
          "system" : "http://terminology.hl7.org/CodeSystem/condition-category",
          "code" : "problem-list-item"
        } ]
      } ],
      "code" : {
        "coding" : [ {
          "system" : "http://snomed.info/sct",
          "code" : "43025008",
          "display" : "Paroxysmal cough (finding)"
        } ]
      },
      "subject" : {
        "reference" : "urn:uuid:6b0c9adc-a12b-11ef-d133-09173f13e4c5"
      },
      "onsetDateTime" : "2020-11-04",
      "recordedDate" : "2020-05-23"
    }
  }, {
    "fullUrl" : "urn:uuid:6b20b626-a12b-11ef-d133-09173f13e4c5",
    "resource" : {
      "resourceType" : "Observation",
      "meta" : {
        "profile" : [ "http://hl7.org/fhir/us/core/StructureDefinition/us-core-observation-lab" ]
      },
      "identifier" : [ {
        "system" : "urn:ietf:rfc:3986",
        "value" : "urn:uuid:7d5a02b0-67a4-11db-bd13-0800200c9a66"
      } ],
      "status" : "final",
      "category" : [ {
        "coding" : [ {
          "system" : "http://terminology.hl7.org/CodeSystem/observation-category",
          "code" : "laboratory"
        } ]
      } ],
      "code" : {
        "coding" : [ {
          "system" : "http://loinc.org",
          "code" : "57021-8",
          "display" : "CBC W Auto Differential panel - Blood"
        } ]
      },
      "subject" : {
        "reference" : "urn:uuid:6b0c9adc-a12b-11ef-d133-09173f13e4c5"
      },
      "effectivePeriod" : {
        "start" : "2020-11-07",
        "end" : "2020-11-07"
      },
      "specimen" : {
        "reference" : "urn:uuid:6b20b662-a12b-11ef-d133-09173f13e4c5",
        "_reference" : {
          "fhir_comments" : [ "2.16.840.1.113883.10.20.22.4.415:2018-09-01" ]
        }
      },
      "hasMember" : [ {
        "reference" : "urn:uuid:6b20b635-a12b-11ef-d133-09173f13e4c5",
        "_reference" : {
          "fhir_comments" : [ "2.16.840.1.113883.10.20.22.4.2", "2.16.840.1.113883.10.20.22.4.2:2015-08-01" ]
        }
      }, {
        "reference" : "urn:uuid:6b20b64a-a12b-11ef-d133-09173f13e4c5",
        "_reference" : {
          "fhir_comments" : [ "2.16.840.1.113883.10.20.22.4.2", "2.16.840.1.113883.10.20.22.4.2:2015-08-01" ]
        }
      } ]
    }
  }, {
    "fullUrl" : "urn:uuid:6b20b635-a12b-11ef-d133-09173f13e4c5",
    "resource" : {
      "resourceType" : "Observation",
      "meta" : {
        "profile" : [ "http://hl7.org/fhir/us/core/StructureDefinition/us-core-observation-lab" ]
      },
      "identifier" : [ {
        "system" : "urn:ietf:rfc:3986",
        "value" : "urn:uuid:7c0704bb-9c40-41b5-9c7d-26b2d59e234f"
      } ],
      "status" : "final",
      "category" : [ {
        "coding" : [ {
          "system" : "http://terminology.hl7.org/CodeSystem/observation-category",
          "code" : "laboratory"
        } ]
      } ],
      "code" : {
        "coding" : [ {
          "system" : "http://loinc.org",
          "code" : "20570-8",
          "display" : "Hematocrit [Volume Fraction] of Blood"
        } ]
      },
      "subject" : {
        "reference" : "urn:uuid:6b0c9adc-a12b-11ef-d133-09173f13e4c5"
      },
      "effectiveDateTime" : "2020-11-07",
      "valueQuantity" : {
        "value" : 35.3,
        "unit" : "%"
      },
      "interpretation" : [ {
        "coding" : [ {
          "system" : "http://terminology.hl7.org/CodeSystem/v3-ObservationInterpretation",
          "code" : "L",
          "display" : "Low"
        } ]
      } ],
      "referenceRange" : [ {
        "low" : {
          "value" : 34.9,
          "unit" : "%"
        },
        "high" : {
          "value" : 44.5,
          "unit" : "%"
        },
        "text" : "Low"
      } ]
    }
  }, {
    "fullUrl" : "urn:uuid:6b20b64a-a12b-11ef-d133-09173f13e4c5",
    "resource" : {
      "resourceType" : "Observation",
      "meta" : {
        "profile" : [ "http://hl7.org/fhir/us/core/StructureDefinition/us-core-observation-lab" ]
      },
      "identifier" : [ {
        "system" : "urn:ietf:rfc:3986",
        "value" : "urn:uuid:7c0704bb-9c40-41b5-9c7d-26b2d59e234g"
      } ],
      "status" : "final",
      "category" : [ {
        "coding" : [ {
          "system" : "http://terminology.hl7.org/CodeSystem/observation-category",
          "code" : "laboratory"
        } ]
      } ],
      "code" : {
        "coding" : [ {
          "system" : "http://loinc.org",
          "code" : "731-0",
          "display" : "Lymphocytes [#/volume] in Blood by Automated count"
        } ]
      },
      "subject" : {
        "reference" : "urn:uuid:6b0c9adc-a12b-11ef-d133-09173f13e4c5"
      },
      "effectiveDateTime" : "2020-11-07",
      "valueQuantity" : {
        "value" : 5.2,
        "unit" : "10*3/uL"
      },
      "interpretation" : [ {
        "coding" : [ {
          "system" : "http://terminology.hl7.org/CodeSystem/v3-ObservationInterpretation",
          "code" : "H",
          "display" : "High"
        } ]
      } ],
      "referenceRange" : [ {
        "low" : {
          "value" : 1.0,
          "unit" : "10*3/uL"
        },
        "high" : {
          "value" : 4.8,
          "unit" : "10*3/uL"
        }
      } ]
    }
  }, {
    "fullUrl" : "urn:uuid:6b20b662-a12b-11ef-d133-09173f13e4c5",
    "resource" : {
      "resourceType" : "Specimen",
      "identifier" : [ {
        "system" : "urn:ietf:rfc:3986",
        "value" : "urn:uuid:44fd0410-6115-4b8e-8ee9-a51b3817df66"
      } ],
      "status" : "available",
      "type" : {
        "coding" : [ {
          "system" : "http://snomed.info/sct",
          "code" : "119297000",
          "display" : "Blood specimen (specimen)"
        } ]
      },
      "collection" : {
        "collectedPeriod" : {
          "start" : "2020-03-09"
        },
        "bodySite" : {
          "coding" : [ {
            "system" : "http://snomed.info/sct",
            "code" : "368208006",
            "display" : "Left upper arm structure (body structure)"
          } ]
        }
      }
    }
  }, {
    "fullUrl" : "urn:uuid:6b20b677-a12b-11ef-d133-09173f13e4c5",
    "resource" : {
      "resourceType" : "Observation",
      "meta" : {
        "profile" : [ "http://hl7.org/fhir/us/core/StructureDefinition/us-core-observation-lab" ]
      },
      "identifier" : [ {
        "system" : "urn:ietf:rfc:3986",
        "value" : "urn:uuid:a4307cb2-b3b4-4f42-be03-1d9077376f4a"
      } ],
      "status" : "final",
      "category" : [ {
        "coding" : [ {
          "system" : "http://terminology.hl7.org/CodeSystem/observation-category",
          "code" : "laboratory"
        } ]
      } ],
      "code" : {
        "coding" : [ {
          "system" : "http://loinc.org",
          "code" : "94510-5",
          "display" : "SARS-CoV-2 (COVID-19) N gene [Cycle Threshold #] in Specimen by NAA with probe detection"
        } ]
      },
      "subject" : {
        "reference" : "urn:uuid:6b0c9adc-a12b-11ef-d133-09173f13e4c5"
      },
      "effectivePeriod" : {
        "start" : "2020-11-07",
        "end" : "2020-11-07"
      },
      "hasMember" : [ {
        "reference" : "urn:uuid:6b20b685-a12b-11ef-d133-09173f13e4c5",
        "_reference" : {
          "fhir_comments" : [ "2.16.840.1.113883.10.20.22.4.2", "2.16.840.1.113883.10.20.22.4.2:2015-08-01", "2.16.840.1.113883.10.20.15.2.3.2:2019-04-01" ]
        }
      } ]
    }
  }, {
    "fullUrl" : "urn:uuid:6b20b685-a12b-11ef-d133-09173f13e4c5",
    "resource" : {
      "resourceType" : "Observation",
      "meta" : {
        "profile" : [ "http://hl7.org/fhir/us/core/StructureDefinition/us-core-observation-lab" ]
      },
      "identifier" : [ {
        "system" : "urn:ietf:rfc:3986",
        "value" : "urn:uuid:bf9c0a26-4524-4395-b3ce-100450b9c9ad"
      } ],
      "status" : "final",
      "category" : [ {
        "coding" : [ {
          "system" : "http://terminology.hl7.org/CodeSystem/observation-category",
          "code" : "laboratory"
        } ]
      } ],
      "code" : {
        "coding" : [ {
          "system" : "http://loinc.org",
          "code" : "94510-5",
          "display" : "SARS-CoV-2 (COVID-19) N gene [Cycle Threshold #] in Specimen by NAA with probe detection"
        } ]
      },
      "subject" : {
        "reference" : "urn:uuid:6b0c9adc-a12b-11ef-d133-09173f13e4c5"
      },
      "effectiveDateTime" : "2020-11-07",
      "valueString" : "POS",
      "interpretation" : [ {
        "coding" : [ {
          "system" : "http://terminology.hl7.org/CodeSystem/v3-ObservationInterpretation",
          "code" : "A",
          "display" : "Abnormal"
        } ]
      } ],
      "referenceRange" : [ {
        "high" : {
          "value" : 45,
          "unit" : "[iU]/mL"
        }
      } ]
    }
  }, {
    "fullUrl" : "urn:uuid:6b20b6bc-a12b-11ef-d133-09173f13e4c5",
    "resource" : {
      "resourceType" : "Procedure",
      "meta" : {
        "profile" : [ "http://hl7.org/fhir/us/ecr/StructureDefinition/eicr-procedure" ]
      },
      "identifier" : [ {
        "system" : "urn:ietf:rfc:3986",
        "value" : "urn:uuid:d68b7e32-7810-4f5b-9cc2-acd54b0fd85d"
      } ],
      "status" : "completed",
      "code" : {
        "coding" : [ {
          "system" : "http://snomed.info/sct",
          "code" : "73761001",
          "display" : "Colonoscopy"
        } ]
      },
      "subject" : {
        "reference" : "urn:uuid:6b0c9adc-a12b-11ef-d133-09173f13e4c5"
      },
      "performedPeriod" : {
        "start" : "2020-11-15",
        "end" : "2020-11-15"
      }
    }
  }, {
    "fullUrl" : "urn:uuid:6b20b6c5-a12b-11ef-d133-09173f13e4c5",
    "resource" : {
      "resourceType" : "Procedure",
      "meta" : {
        "profile" : [ "http://hl7.org/fhir/us/ecr/StructureDefinition/eicr-procedure" ]
      },
      "identifier" : [ {
        "system" : "urn:ietf:rfc:3986",
        "value" : "urn:uuid:6dab0739-749d-4c62-8f5e-eea77a045ce8"
      } ],
      "status" : "completed",
      "code" : {
        "coding" : [ {
          "system" : "http://snomed.info/sct",
          "code" : "274025005",
          "display" : "Colonic polypectomy"
        } ]
      },
      "subject" : {
        "reference" : "urn:uuid:6b0c9adc-a12b-11ef-d133-09173f13e4c5"
      },
      "performedPeriod" : {
        "start" : "2020-11-15",
        "end" : "2020-11-15"
      },
      "bodySite" : [ {
        "coding" : [ {
          "system" : "http://snomed.info/sct",
          "code" : "416949008",
          "display" : "Abdomen and pelvis"
        } ]
      } ],
      "outcome" : {
        "coding" : [ {
          "extension" : [ {
            "url" : "http://hl7.org/fhir/StructureDefinition/data-absent-reason",
            "valueCode" : "not-applicable"
          } ]
        } ]
      }
    }
  }, {
    "fullUrl" : "urn:uuid:6b20b6d3-a12b-11ef-d133-09173f13e4c5",
    "resource" : {
      "resourceType" : "Procedure",
      "meta" : {
        "profile" : [ "http://hl7.org/fhir/us/ecr/StructureDefinition/eicr-procedure" ]
      },
      "identifier" : [ {
        "system" : "urn:ietf:rfc:3986",
        "value" : "urn:uuid:609a7b3b-3bd1-4e83-b621-c4afe4a90cd7"
      } ],
      "status" : "completed",
      "code" : {
        "coding" : [ {
          "system" : "http://snomed.info/sct",
          "code" : "233573008",
          "display" : "Extracorporeal membrane oxygenation (procedure)"
        } ]
      },
      "subject" : {
        "reference" : "urn:uuid:6b0c9adc-a12b-11ef-d133-09173f13e4c5"
      },
      "performedPeriod" : {
        "start" : "2020-11-15",
        "end" : "2020-11-15"
      }
    }
  }, {
    "fullUrl" : "urn:uuid:6b20b6df-a12b-11ef-d133-09173f13e4c5",
    "resource" : {
      "resourceType" : "Procedure",
      "meta" : {
        "profile" : [ "http://hl7.org/fhir/us/ecr/StructureDefinition/eicr-procedure" ]
      },
      "identifier" : [ {
        "system" : "urn:ietf:rfc:3986",
        "value" : "urn:uuid:941aee94-1f69-4fa8-91c8-7eee00915728"
      } ],
      "status" : "completed",
      "code" : {
        "coding" : [ {
          "system" : "http://snomed.info/sct",
          "code" : "409524006",
          "display" : "Airborne precautions (procedure)"
        } ]
      },
      "subject" : {
        "reference" : "urn:uuid:6b0c9adc-a12b-11ef-d133-09173f13e4c5"
      },
      "performedPeriod" : {
        "start" : "2020-11-15",
        "end" : "2020-11-15"
      }
    }
  }, {
    "fullUrl" : "urn:uuid:6b20b6eb-a12b-11ef-d133-09173f13e4c5",
    "resource" : {
      "resourceType" : "Procedure",
      "meta" : {
        "profile" : [ "http://hl7.org/fhir/us/ecr/StructureDefinition/eicr-procedure" ]
      },
      "identifier" : [ {
        "system" : "urn:ietf:rfc:3986",
        "value" : "urn:uuid:e535eb92-829f-45bb-8602-a49f59bb4e2c"
      } ],
      "status" : "completed",
      "code" : {
        "coding" : [ {
          "system" : "http://snomed.info/sct",
          "code" : "385857005",
          "display" : "Ventilator care and adjustment (regime/therapy)"
        } ]
      },
      "subject" : {
        "reference" : "urn:uuid:6b0c9adc-a12b-11ef-d133-09173f13e4c5"
      },
      "performedPeriod" : {
        "start" : "2020-11-15",
        "end" : "2020-11-15"
      },
      "outcome" : {
        "coding" : [ {
          "extension" : [ {
            "url" : "http://hl7.org/fhir/StructureDefinition/data-absent-reason",
            "valueCode" : "not-applicable"
          } ]
        } ]
      }
    }
  }, {
    "fullUrl" : "urn:uuid:6b20b731-a12b-11ef-d133-09173f13e4c5",
    "resource" : {
      "resourceType" : "Immunization",
      "meta" : {
        "profile" : [ "http://hl7.org/fhir/us/core/StructureDefinition/us-core-immunization" ]
      },
      "identifier" : [ {
        "system" : "urn:uuid:00000000-5cf3-ec63-0513-4a4838595787",
        "value" : "11369-6_3-1_1.3.6.1.4.1.22812.11.2016.163.1_14168"
      } ],
      "status" : "completed",
      "vaccineCode" : {
        "coding" : [ {
          "system" : "urn:oid:2.16.840.1.113883.12.292",
          "code" : "106",
          "display" : "diphtheria, tetanus toxoids and acellular pertussis vaccine, 5 pertussis antigens"
        } ]
      },
      "patient" : {
        "reference" : "urn:uuid:6b0c9adc-a12b-11ef-d133-09173f13e4c5"
      },
      "occurrenceDateTime" : "2020-11-07",
      "primarySource" : false,
      "_primarySource" : {
        "fhir_comments" : [ "INFO: Defaulting primarySource to false since this info is not in the C-CDA Immunization Activity template" ]
      },
      "route" : {
        "coding" : [ {
          "extension" : [ {
            "url" : "http://hl7.org/fhir/StructureDefinition/data-absent-reason",
            "valueCode" : "unknown"
          } ]
        } ]
      }
    }
  }, {
    "fullUrl" : "urn:uuid:6b20b742-a12b-11ef-d133-09173f13e4c5",
    "resource" : {
      "resourceType" : "Immunization",
      "meta" : {
        "profile" : [ "http://hl7.org/fhir/us/core/StructureDefinition/us-core-immunization" ]
      },
      "identifier" : [ {
        "system" : "urn:uuid:00000000-5cf3-ec63-0513-4a4838595787",
        "value" : "11369-6_2-1_1.3.6.1.4.1.22812.11.2016.163.1_14168"
      } ],
      "status" : "completed",
      "vaccineCode" : {
        "coding" : [ {
          "system" : "urn:oid:2.16.840.1.113883.12.292",
          "code" : "24",
          "display" : "anthrax vaccine"
        } ]
      },
      "patient" : {
        "reference" : "urn:uuid:6b0c9adc-a12b-11ef-d133-09173f13e4c5"
      },
      "occurrenceDateTime" : "2020-11-07",
      "primarySource" : false,
      "_primarySource" : {
        "fhir_comments" : [ "INFO: Defaulting primarySource to false since this info is not in the C-CDA Immunization Activity template" ]
      },
      "route" : {
        "coding" : [ {
          "extension" : [ {
            "url" : "http://hl7.org/fhir/StructureDefinition/data-absent-reason",
            "valueCode" : "unknown"
          } ]
        } ]
      }
    }
  }, {
    "fullUrl" : "urn:uuid:6b20b755-a12b-11ef-d133-09173f13e4c5",
    "resource" : {
      "resourceType" : "Observation",
      "fhir_comments" : [ "Processing as generic observation: 2.16.840.1.113883.10.20.15.2.3.55:" ],
      "meta" : {
        "profile" : [ "http://hl7.org/fhir/us/ecr/StructureDefinition/eicr-vaccine-credential-patient-assertion" ]
      },
      "identifier" : [ {
        "system" : "urn:ietf:rfc:3986",
        "value" : "urn:uuid:3adc7f4d-ff0a-4b38-9252-bd65edbe3dff"
      } ],
      "status" : "final",
      "code" : {
        "coding" : [ {
          "system" : "http://loinc.org",
          "code" : "11370-4",
          "display" : "Immunization status - Reported"
        } ]
      },
      "subject" : {
        "reference" : "urn:uuid:6b0c9adc-a12b-11ef-d133-09173f13e4c5"
      },
      "effectiveDateTime" : "2020-11-07",
      "issued" : "2020-11-07T09:44:21.000-05:00",
      "_issued" : {
        "fhir_comments" : [ "INFO: Using document effective time as issued date" ]
      },
      "valueCodeableConcept" : {
        "coding" : [ {
          "system" : "http://terminology.hl7.org/CodeSystem/v2-0532",
          "code" : "Y",
          "display" : "Yes"
        } ]
      }
    }
  }, {
    "fullUrl" : "urn:uuid:6b20b7ff-a12b-11ef-d133-09173f13e4c5",
    "resource" : {
      "resourceType" : "Observation",
      "fhir_comments" : [ "Characteristics of Home Environment" ],
      "meta" : {
        "profile" : [ "http://hl7.org/fhir/us/ecr/StructureDefinition/us-ph-characteristics-of-home-environment" ]
      },
      "identifier" : [ {
        "system" : "urn:ietf:rfc:3986",
        "value" : "urn:uuid:37f76c51-6411-4e1d-8a37-957fd49d2ced"
      } ],
      "status" : "final",
      "code" : {
        "coding" : [ {
          "system" : "http://loinc.org",
          "code" : "75274-1",
          "display" : "Characteristics of residence"
        } ]
      },
      "subject" : {
        "reference" : "urn:uuid:6b0c9adc-a12b-11ef-d133-09173f13e4c5"
      },
      "effectiveDateTime" : "2020-11-09",
      "valueCodeableConcept" : {
        "coding" : [ {
          "system" : "http://snomed.info/sct",
          "code" : "32911000",
          "display" : "Homeless (finding)"
        } ]
      }
    }
  }, {
    "fullUrl" : "urn:uuid:6b20b809-a12b-11ef-d133-09173f13e4c5",
    "resource" : {
      "resourceType" : "Observation",
      "fhir_comments" : [ "Exposure/Contact Information Observation" ],
      "meta" : {
        "profile" : [ "http://hl7.org/fhir/us/ecr/StructureDefinition/us-ph-exposure-contact-information" ]
      },
      "identifier" : [ {
        "system" : "urn:ietf:rfc:3986",
        "value" : "urn:uuid:5f2e0ab0-b505-438a-9d50-f22d78ad1567"
      } ],
      "status" : "final",
      "category" : [ {
        "coding" : [ {
          "system" : "http://terminology.hl7.org/CodeSystem/v3-ActClass",
          "code" : "EXPOS",
          "display" : "exposure"
        } ],
        "text" : "An interaction between entities that provides opportunity for transmission of a physical, chemical, or biological agent from an exposure source entity to an exposure target entity."
      } ],
      "code" : {
        "coding" : [ {
          "system" : "http://loinc.org",
          "code" : "C3841750",
          "display" : "Mass gathering"
        } ],
        "text" : "Football game"
      },
      "subject" : {
        "reference" : "urn:uuid:6b0c9adc-a12b-11ef-d133-09173f13e4c5"
      },
      "focus" : [ {
        "reference" : "urn:uuid:6b20b815-a12b-11ef-d133-09173f13e4c5"
      } ],
      "effectivePeriod" : {
        "start" : "2020-11-10T18:00:00+05:30",
        "end" : "2020-11-10T21:30:00+05:30"
      }
    }
  }, {
    "fullUrl" : "urn:uuid:6b20b815-a12b-11ef-d133-09173f13e4c5",
    "resource" : {
      "resourceType" : "Location",
      "meta" : {
        "profile" : [ "http://hl7.org/fhir/us/core/StructureDefinition/us-core-location" ]
      },
      "name" : "City Football Stadium",
      "address" : {
        "line" : [ "99 Football Stadium Road" ],
        "city" : "My City",
        "state" : "AZ",
        "postalCode" : "8562",
        "country" : "US"
      }
    }
  }, {
    "fullUrl" : "urn:uuid:6b20b821-a12b-11ef-d133-09173f13e4c5",
    "resource" : {
      "resourceType" : "Observation",
      "fhir_comments" : [ "Exposure/Contact Information Observation" ],
      "meta" : {
        "profile" : [ "http://hl7.org/fhir/us/ecr/StructureDefinition/us-ph-exposure-contact-information" ]
      },
      "identifier" : [ {
        "system" : "urn:ietf:rfc:3986",
        "value" : "urn:uuid:a78adeed-d623-49cb-95df-42a0a2c33fca"
      } ],
      "status" : "final",
      "category" : [ {
        "coding" : [ {
          "system" : "http://terminology.hl7.org/CodeSystem/v3-ActClass",
          "code" : "EXPOS",
          "display" : "exposure"
        } ],
        "text" : "An interaction between entities that provides opportunity for transmission of a physical, chemical, or biological agent from an exposure source entity to an exposure target entity."
      } ],
      "code" : {
        "coding" : [ {
          "system" : "urn:oid:2.16.840.1.114222.4.5.274",
          "code" : "PHC2266",
          "display" : "Animal with confirmed or suspected case"
        } ]
      },
      "subject" : {
        "reference" : "urn:uuid:6b0c9adc-a12b-11ef-d133-09173f13e4c5"
      },
      "focus" : [ {
        "reference" : "urn:uuid:6b20b82a-a12b-11ef-d133-09173f13e4c5"
      } ],
      "effectivePeriod" : {
        "start" : "2020-11-09",
        "end" : "2020-11-13"
      }
    }
  }, {
    "fullUrl" : "urn:uuid:6b20b82a-a12b-11ef-d133-09173f13e4c5",
    "resource" : {
      "resourceType" : "RelatedPerson",
      "extension" : [ {
        "fhir_comments" : [ "cda:participant (Animal Participant)" ],
        "url" : "http://hl7.org/fhir/StructureDefinition/practitioner-animalSpecies",
        "valueCodeableConcept" : {
          "coding" : [ {
            "system" : "http://snomed.info/sct",
            "code" : "35794008",
            "display" : "Wild mink (organism)"
          } ]
        }
      } ],
      "patient" : {
        "reference" : "urn:uuid:6b0c9adc-a12b-11ef-d133-09173f13e4c5"
      },
      "name" : [ {
        "text" : "Wild mink (organism)"
      } ]
    }
  }, {
    "fullUrl" : "urn:uuid:6b20b833-a12b-11ef-d133-09173f13e4c5",
    "resource" : {
      "resourceType" : "Observation",
      "fhir_comments" : [ "Exposure/Contact Information Observation" ],
      "meta" : {
        "profile" : [ "http://hl7.org/fhir/us/ecr/StructureDefinition/us-ph-exposure-contact-information" ]
      },
      "identifier" : [ {
        "system" : "urn:ietf:rfc:3986",
        "value" : "urn:uuid:a78adeed-d623-49cb-95df-42a0a2c33fca"
      } ],
      "status" : "final",
      "category" : [ {
        "coding" : [ {
          "system" : "http://terminology.hl7.org/CodeSystem/v3-ActClass",
          "code" : "EXPOS",
          "display" : "exposure"
        } ],
        "text" : "An interaction between entities that provides opportunity for transmission of a physical, chemical, or biological agent from an exposure source entity to an exposure target entity."
      } ],
      "code" : {
        "coding" : [ {
          "system" : "urn:oid:2.16.840.1.114222.4.5.274",
          "code" : "PHC2267",
          "display" : "Contact with known case"
        } ]
      },
      "subject" : {
        "reference" : "urn:uuid:6b0c9adc-a12b-11ef-d133-09173f13e4c5"
      },
      "focus" : [ {
        "reference" : "urn:uuid:6b20b83c-a12b-11ef-d133-09173f13e4c5"
      } ],
      "effectivePeriod" : {
        "start" : "2020-11-09",
        "end" : "2020-11-13"
      },
      "component" : [ {
        "code" : {
          "coding" : [ {
            "system" : "http://terminology.hl7.org/CodeSystem/v3-ParticipationType",
            "code" : "EXPAGNT",
            "display" : "ExposureAgent"
          } ]
        },
        "valueCodeableConcept" : {
          "coding" : [ {
            "system" : "http://snomed.info/sct",
            "code" : "840533007",
            "display" : "Severe acute respiratory syndrome coronavirus 2 (organism)"
          } ]
        }
      } ]
    }
  }, {
    "fullUrl" : "urn:uuid:6b20b83c-a12b-11ef-d133-09173f13e4c5",
    "resource" : {
      "resourceType" : "RelatedPerson",
      "patient" : {
        "fhir_comments" : [ "cda:participant (Person Participant)" ],
        "reference" : "urn:uuid:6b0c9adc-a12b-11ef-d133-09173f13e4c5"
      },
      "name" : [ {
        "use" : "usual",
        "family" : "Everyman",
        "given" : [ "Adam" ]
      } ]
    }
  }, {
    "fullUrl" : "urn:uuid:6b20b84c-a12b-11ef-d133-09173f13e4c5",
    "resource" : {
      "resourceType" : "Observation",
      "fhir_comments" : [ "Travel History" ],
      "meta" : {
        "profile" : [ "http://hl7.org/fhir/us/ecr/StructureDefinition/us-ph-travel-history" ]
      },
      "identifier" : [ {
        "system" : "urn:ietf:rfc:3986",
        "value" : "urn:uuid:79565142-eae0-4213-a3b3-b73cdf474682"
      } ],
      "status" : "final",
      "code" : {
        "coding" : [ {
          "system" : "http://snomed.info/sct",
          "code" : "420008001",
          "display" : "Travel"
        } ]
      },
      "subject" : {
        "reference" : "urn:uuid:6b0c9adc-a12b-11ef-d133-09173f13e4c5"
      },
      "effectivePeriod" : {
        "start" : "1999",
        "end" : "2007"
      },
      "component" : [ {
        "code" : {
          "coding" : [ {
            "system" : "http://terminology.hl7.org/CodeSystem/v3-ParticipationType",
            "code" : "LOC",
            "display" : "Location"
          } ]
        },
        "valueCodeableConcept" : {
          "text" : "Spent 8 years in the UK during the BSE outbreak"
        }
      } ]
    }
  }, {
    "fullUrl" : "urn:uuid:6b20b859-a12b-11ef-d133-09173f13e4c5",
    "resource" : {
      "resourceType" : "Observation",
      "fhir_comments" : [ "Travel History" ],
      "meta" : {
        "profile" : [ "http://hl7.org/fhir/us/ecr/StructureDefinition/us-ph-travel-history" ]
      },
      "identifier" : [ {
        "system" : "urn:ietf:rfc:3986",
        "value" : "urn:uuid:030df1dc-1d31-4e5d-abdd-5edd0b74c5c3"
      } ],
      "status" : "final",
      "code" : {
        "coding" : [ {
          "system" : "http://snomed.info/sct",
          "code" : "420008001",
          "display" : "Travel"
        } ]
      },
      "subject" : {
        "reference" : "urn:uuid:6b0c9adc-a12b-11ef-d133-09173f13e4c5"
      },
      "effectivePeriod" : {
        "start" : "2020-10-19",
        "end" : "2020-11-09"
      },
      "component" : [ {
        "code" : {
          "coding" : [ {
            "system" : "http://terminology.hl7.org/CodeSystem/v3-ParticipationType",
            "code" : "LOC",
            "display" : "Location"
          } ]
        },
        "valueCodeableConcept" : {
          "coding" : [ {
            "system" : "urn:iso:std:iso:3166",
            "code" : "BRA",
            "display" : "Brazil"
          } ]
        }
      } ]
    }
  }, {
    "fullUrl" : "urn:uuid:6b20b869-a12b-11ef-d133-09173f13e4c5",
    "resource" : {
      "resourceType" : "Observation",
      "fhir_comments" : [ "Travel History" ],
      "meta" : {
        "profile" : [ "http://hl7.org/fhir/us/ecr/StructureDefinition/us-ph-travel-history" ]
      },
      "identifier" : [ {
        "system" : "urn:ietf:rfc:3986",
        "value" : "urn:uuid:b98e410c-d29a-46d8-8fc8-f55a9d3022b9"
      } ],
      "status" : "final",
      "code" : {
        "coding" : [ {
          "system" : "http://snomed.info/sct",
          "code" : "420008001",
          "display" : "Travel"
        } ]
      },
      "subject" : {
        "reference" : "urn:uuid:6b0c9adc-a12b-11ef-d133-09173f13e4c5"
      },
      "effectivePeriod" : {
        "start" : "2020-04-25",
        "end" : "2020-04-30"
      },
      "component" : [ {
        "extension" : [ {
          "fhir_comments" : [ "Travel History Address Extension" ],
          "url" : "http://hl7.org/fhir/us/ecr/StructureDefinition/us-ph-address-extension",
          "valueAddress" : {
            "city" : "Nadi",
            "country" : "FJ"
          }
        } ],
        "code" : {
          "coding" : [ {
            "system" : "http://terminology.hl7.org/CodeSystem/v3-ParticipationType",
            "code" : "LOC",
            "display" : "Location"
          } ]
        }
      }, {
        "code" : {
          "coding" : [ {
            "system" : "http://snomed.info/sct",
            "code" : "280147009",
            "display" : "Type of activity"
          } ]
        },
        "valueCodeableConcept" : {
          "coding" : [ {
            "system" : "http://terminology.hl7.org/CodeSystem/umls",
            "code" : "C0683587",
            "display" : "tourism"
          } ]
        }
      } ]
    }
  }, {
    "fullUrl" : "urn:uuid:6b20b882-a12b-11ef-d133-09173f13e4c5",
    "resource" : {
      "resourceType" : "Observation",
      "meta" : {
        "profile" : [ "http://hl7.org/fhir/us/ecr/StructureDefinition/us-ph-transportation-details" ]
      },
      "identifier" : [ {
        "system" : "urn:ietf:rfc:3986",
        "value" : "urn:uuid:afd5c96f-9289-4796-b8fa-faa50ac113ff"
      } ],
      "status" : "final",
      "category" : [ {
        "coding" : [ {
          "system" : "http://terminology.hl7.org/CodeSystem/v3-ActClass",
          "code" : "TRNS",
          "display" : "Transportation"
        } ],
        "text" : "Transportation"
      } ],
      "code" : {
        "coding" : [ {
          "system" : "http://snomed.info/sct",
          "code" : "424483007",
          "display" : "Transportation details (observable entity)"
        } ]
      },
      "subject" : {
        "reference" : "urn:uuid:6b0c9adc-a12b-11ef-d133-09173f13e4c5"
      },
      "effectivePeriod" : {
        "start" : "2020-04-25",
        "end" : "2020-05-15"
      },
      "valueCodeableConcept" : {
        "coding" : [ {
          "system" : "http://loinc.org",
          "code" : "21812002",
          "display" : "Ocean liner, device (physical object)"
        } ]
      },
      "component" : [ {
        "code" : {
          "coding" : [ {
            "extension" : [ {
              "url" : "http://hl7.org/fhir/StructureDefinition/data-absent-reason",
              "valueCode" : "unknown"
            } ]
          } ],
          "text" : "Ship Name"
        },
        "valueString" : "Princess of the Sea"
      }, {
        "code" : {
          "coding" : [ {
            "extension" : [ {
              "url" : "http://hl7.org/fhir/StructureDefinition/data-absent-reason",
              "valueCode" : "unknown"
            } ]
          } ],
          "text" : "Cabin Number"
        },
        "valueString" : "69B"
      } ]
    }
  }, {
    "fullUrl" : "urn:uuid:6b20b8a8-a12b-11ef-d133-09173f13e4c5",
    "resource" : {
      "resourceType" : "Observation",
      "fhir_comments" : [ "Travel History" ],
      "meta" : {
        "profile" : [ "http://hl7.org/fhir/us/ecr/StructureDefinition/us-ph-travel-history" ]
      },
      "identifier" : [ {
        "system" : "urn:ietf:rfc:3986",
        "value" : "urn:uuid:b97346f7-8f9e-4c5b-97bb-df4f6e057fd4"
      } ],
      "status" : "final",
      "code" : {
        "coding" : [ {
          "system" : "http://snomed.info/sct",
          "code" : "420008001",
          "display" : "Travel"
        } ]
      },
      "subject" : {
        "reference" : "urn:uuid:6b0c9adc-a12b-11ef-d133-09173f13e4c5"
      },
      "effectivePeriod" : {
        "start" : "2020-05-06",
        "end" : "2020-05-15"
      },
      "component" : [ {
        "extension" : [ {
          "fhir_comments" : [ "Travel History Address Extension" ],
          "url" : "http://hl7.org/fhir/us/ecr/StructureDefinition/us-ph-address-extension",
          "valueAddress" : {
            "city" : "Montreal",
            "state" : "QC",
            "country" : "CA"
          }
        } ],
        "code" : {
          "coding" : [ {
            "system" : "http://terminology.hl7.org/CodeSystem/v3-ParticipationType",
            "code" : "LOC",
            "display" : "Location"
          } ]
        }
      } ]
    }
  }, {
    "fullUrl" : "urn:uuid:6b20b8ba-a12b-11ef-d133-09173f13e4c5",
    "resource" : {
      "resourceType" : "Observation",
      "fhir_comments" : [ "Travel History" ],
      "meta" : {
        "profile" : [ "http://hl7.org/fhir/us/ecr/StructureDefinition/us-ph-travel-history" ]
      },
      "identifier" : [ {
        "system" : "urn:ietf:rfc:3986",
        "value" : "urn:uuid:1d957c2a-6133-427d-a6cc-26f132773b86"
      } ],
      "status" : "final",
      "code" : {
        "coding" : [ {
          "system" : "http://snomed.info/sct",
          "code" : "420008001",
          "display" : "Travel"
        } ]
      },
      "subject" : {
        "reference" : "urn:uuid:6b0c9adc-a12b-11ef-d133-09173f13e4c5"
      },
      "effectivePeriod" : {
        "start" : "2020-07-13",
        "end" : "2020-07-15"
      },
      "component" : [ {
        "extension" : [ {
          "fhir_comments" : [ "Travel History Address Extension" ],
          "url" : "http://hl7.org/fhir/us/ecr/StructureDefinition/us-ph-address-extension",
          "valueAddress" : {
            "city" : "Sydney",
            "state" : "NSW",
            "country" : "AU"
          }
        } ],
        "code" : {
          "coding" : [ {
            "system" : "http://terminology.hl7.org/CodeSystem/v3-ParticipationType",
            "code" : "LOC",
            "display" : "Location"
          } ]
        }
      } ]
    }
  }, {
    "fullUrl" : "urn:uuid:6b20b8cb-a12b-11ef-d133-09173f13e4c5",
    "resource" : {
      "resourceType" : "Observation",
      "fhir_comments" : [ "Travel History" ],
      "meta" : {
        "profile" : [ "http://hl7.org/fhir/us/ecr/StructureDefinition/us-ph-travel-history" ]
      },
      "identifier" : [ {
        "system" : "urn:ietf:rfc:3986",
        "value" : "urn:uuid:45397b5c-e974-4cf1-8b19-e1555bd55701"
      } ],
      "status" : "final",
      "code" : {
        "coding" : [ {
          "system" : "http://snomed.info/sct",
          "code" : "420008001",
          "display" : "Travel"
        } ]
      },
      "subject" : {
        "reference" : "urn:uuid:6b0c9adc-a12b-11ef-d133-09173f13e4c5"
      },
      "effectivePeriod" : {
        "start" : "2020-10-22",
        "end" : "2020-10-30"
      },
      "component" : [ {
        "extension" : [ {
          "fhir_comments" : [ "Travel History Address Extension" ],
          "url" : "http://hl7.org/fhir/us/ecr/StructureDefinition/us-ph-address-extension",
          "valueAddress" : {
            "line" : [ "1170 N Rancho Robles Rd" ],
            "city" : "Oracle",
            "state" : "AZ",
            "postalCode" : "8562",
            "country" : "US"
          }
        } ],
        "code" : {
          "coding" : [ {
            "system" : "http://terminology.hl7.org/CodeSystem/v3-ParticipationType",
            "code" : "LOC",
            "display" : "Location"
          } ]
        }
      } ]
    }
  }, {
    "fullUrl" : "urn:uuid:6b20b8dd-a12b-11ef-d133-09173f13e4c5",
    "resource" : {
      "resourceType" : "Observation",
      "fhir_comments" : [ "Processing as generic observation: 2.16.840.1.113883.10.20.15.2.3.53:" ],
      "meta" : {
        "profile" : [ "http://hl7.org/fhir/us/ecr/StructureDefinition/eicr-country-of-residence" ]
      },
      "identifier" : [ {
        "system" : "urn:ietf:rfc:3986",
        "value" : "urn:uuid:3adc7f4d-ff0a-4b38-9252-bd65edbe3dfg"
      } ],
      "status" : "final",
      "category" : [ {
        "coding" : [ {
          "system" : "http://terminology.hl7.org/CodeSystem/observation-category",
          "code" : "social-history",
          "display" : "Social History"
        } ]
      } ],
      "code" : {
        "coding" : [ {
          "system" : "http://loinc.org",
          "code" : "77983-5",
          "display" : "Country of usual residence"
        } ]
      },
      "subject" : {
        "reference" : "urn:uuid:6b0c9adc-a12b-11ef-d133-09173f13e4c5"
      },
      "issued" : "2020-11-07T09:44:21.000-05:00",
      "_issued" : {
        "fhir_comments" : [ "INFO: Using document effective time as issued date" ]
      },
      "valueCodeableConcept" : {
        "coding" : [ {
          "system" : "urn:iso:std:iso:3166",
          "code" : "GB",
          "display" : "United Kingdom of Great Britain and Northern Ireland"
        } ]
      }
    }
  }, {
    "fullUrl" : "urn:uuid:6b20b8e6-a12b-11ef-d133-09173f13e4c5",
    "resource" : {
      "resourceType" : "Observation",
      "fhir_comments" : [ "Processing as generic observation: 2.16.840.1.113883.10.20.15.2.3.54:" ],
      "meta" : {
        "profile" : [ "http://hl7.org/fhir/us/ecr/StructureDefinition/eicr-country-of-nationality" ]
      },
      "identifier" : [ {
        "system" : "urn:ietf:rfc:3986",
        "value" : "urn:uuid:3adc7f4d-ff0a-4b38-9252-bd65edbe3dfa"
      } ],
      "status" : "final",
      "category" : [ {
        "coding" : [ {
          "system" : "http://terminology.hl7.org/CodeSystem/observation-category",
          "code" : "social-history",
          "display" : "Social History"
        } ]
      } ],
      "code" : {
        "coding" : [ {
          "system" : "http://snomed.info/sct",
          "code" : "186034007",
          "display" : "Ethnicity / related nationality data (observable entity)"
        } ]
      },
      "subject" : {
        "reference" : "urn:uuid:6b0c9adc-a12b-11ef-d133-09173f13e4c5"
      },
      "issued" : "2020-11-07T09:44:21.000-05:00",
      "_issued" : {
        "fhir_comments" : [ "INFO: Using document effective time as issued date" ]
      },
      "valueCodeableConcept" : {
        "coding" : [ {
          "system" : "urn:iso:std:iso:3166",
          "code" : "AU",
          "display" : "Australia"
        } ]
      }
    }
  }, {
    "fullUrl" : "urn:uuid:6b20b8ee-a12b-11ef-d133-09173f13e4c5",
    "resource" : {
      "resourceType" : "Observation",
      "fhir_comments" : [ "Processing as generic observation: 2.16.840.1.113883.10.20.15.2.3.47:" ],
      "meta" : {
        "profile" : [ "http://hl7.org/fhir/us/ecr/StructureDefinition/us-ph-disability-status" ]
      },
      "identifier" : [ {
        "system" : "urn:ietf:rfc:3986",
        "value" : "urn:uuid:c09ac074-605e-47bd-8b1c-735e7321fbc2"
      } ],
      "status" : "final",
      "category" : [ {
        "coding" : [ {
          "system" : "http://terminology.hl7.org/CodeSystem/observation-category",
          "code" : "social-history",
          "display" : "Social History"
        } ]
      } ],
      "code" : {
        "coding" : [ {
          "system" : "http://loinc.org",
          "code" : "69856-3",
          "display" : "Are you deaf, or do you have serious difficulty hearing"
        } ]
      },
      "subject" : {
        "reference" : "urn:uuid:6b0c9adc-a12b-11ef-d133-09173f13e4c5"
      },
      "effectiveDateTime" : "2020-11-09",
      "issued" : "2020-11-07T09:44:21.000-05:00",
      "_issued" : {
        "fhir_comments" : [ "INFO: Using document effective time as issued date" ]
      },
      "valueBoolean" : true
    }
  }, {
    "fullUrl" : "urn:uuid:6b20b904-a12b-11ef-d133-09173f13e4c5",
    "resource" : {
      "resourceType" : "Observation",
      "fhir_comments" : [ "ODH Usual Work" ],
      "meta" : {
        "profile" : [ "http://hl7.org/fhir/us/odh/StructureDefinition/odh-UsualWork" ]
      },
      "identifier" : [ {
        "system" : "urn:ietf:rfc:3986",
        "value" : "urn:uuid:4f4b3876-8570-41a0-b995-cf34f37c5cbf"
      } ],
      "status" : "final",
      "category" : [ {
        "coding" : [ {
          "system" : "http://terminology.hl7.org/CodeSystem/observation-category",
          "code" : "social-history",
          "display" : "Social History"
        } ]
      } ],
      "code" : {
        "coding" : [ {
          "system" : "http://loinc.org",
          "code" : "21843-8",
          "display" : "History of Usual occupation"
        } ]
      },
      "subject" : {
        "reference" : "urn:uuid:6b0c9adc-a12b-11ef-d133-09173f13e4c5"
      },
      "effectivePeriod" : {
        "start" : "1996-11-24"
      },
      "valueCodeableConcept" : {
        "coding" : [ {
          "system" : "urn:oid:2.16.840.1.113883.6.240",
          "code" : "3600",
          "display" : "Nursing, psychiatric, and home health aides"
        }, {
          "system" : "urn:oid:2.16.840.1.114222.4.5.327",
          "code" : "31-1014.00.007136",
          "display" : "Certified Nursing Assistant (CNA) [Nursing Assistants]"
        } ]
      },
      "component" : [ {
        "code" : {
          "fhir_comments" : [ "" ],
          "coding" : [ {
            "system" : "http://loinc.org",
            "code" : "21844-6",
            "display" : "History of Usual industry"
          } ]
        },
        "valueCodeableConcept" : {
          "coding" : [ {
            "system" : "urn:oid:2.16.840.1.114222.4.5.315",
            "code" : "8270",
            "display" : "Nursing care facilities"
          }, {
            "system" : "urn:oid:2.16.840.1.114222.4.5.327",
            "code" : "621610.008495",
            "display" : "Home nursing services"
          } ]
        }
      } ]
    }
  }, {
    "fullUrl" : "urn:uuid:6b20b92d-a12b-11ef-d133-09173f13e4c5",
    "resource" : {
      "resourceType" : "Organization",
      "meta" : {
        "profile" : [ "http://hl7.org/fhir/us/ecr/StructureDefinition/us-ph-organization" ]
      },
      "identifier" : [ {
        "system" : "urn:uuid:58822180-ab0d-42e4-90c6-35336bf55654",
        "value" : "12345"
      } ],
      "active" : true,
      "name" : "University Hospital",
      "telecom" : [ {
        "system" : "phone",
        "value" : "555-1212",
        "use" : "work"
      } ],
      "address" : [ {
        "line" : [ "Peachtree St" ],
        "city" : "Atlanta",
        "state" : "Georgia"
      } ]
    }
  }, {
    "fullUrl" : "urn:uuid:6b20b91e-a12b-11ef-d133-09173f13e4c5",
    "resource" : {
      "resourceType" : "Observation",
      "fhir_comments" : [ "ODH Past or Present Job" ],
      "extension" : [ {
        "fhir_comments" : [ "ODH Employer Extension" ],
        "url" : "http://hl7.org/fhir/us/odh/StructureDefinition/odh-Employer-extension",
        "valueReference" : {
          "reference" : "urn:uuid:6b20b92d-a12b-11ef-d133-09173f13e4c5"
        }
      } ],
      "identifier" : [ {
        "system" : "urn:ietf:rfc:3986",
        "value" : "urn:uuid:1728123a-7b6c-418c-adc2-f78417caf62c"
      } ],
      "status" : "final",
      "code" : {
        "coding" : [ {
          "system" : "http://loinc.org",
          "code" : "11341-5",
          "display" : "History of Occupation"
        } ]
      },
      "subject" : {
        "reference" : "urn:uuid:6b0c9adc-a12b-11ef-d133-09173f13e4c5"
      },
      "effectivePeriod" : {
        "start" : "2015-04-24"
      },
      "valueCodeableConcept" : {
        "coding" : [ {
          "system" : "urn:oid:2.16.840.1.113883.6.240",
          "code" : "3600",
          "display" : "Nursing, psychiatric, and home health aides"
        }, {
          "system" : "urn:oid:2.16.840.1.114222.4.5.327",
          "code" : "31-1014.00.007136",
          "display" : "Certified Nursing Assistant (CNA) [Nursing Assistants]"
        } ]
      },
      "note" : [ {
        "text" : "Nurse"
      } ],
      "component" : [ {
        "code" : {
          "fhir_comments" : [ "Observation.component: odh-OccupationalHazard" ],
          "coding" : [ {
            "system" : "http://loinc.org",
            "code" : "87729-0",
            "display" : "History of Occupational hazard"
          } ]
        },
        "valueString" : "Asbestos"
      }, {
        "code" : {
          "fhir_comments" : [ "" ],
          "coding" : [ {
            "system" : "http://loinc.org",
            "code" : "86188-0",
            "display" : "History of Occupation industry"
          } ]
        },
        "valueCodeableConcept" : {
          "coding" : [ {
            "system" : "urn:oid:2.16.840.1.114222.4.5.315",
            "code" : "8270",
            "display" : "Nursing care facilities"
          }, {
            "system" : "urn:oid:2.16.840.1.114222.4.5.327",
            "code" : "621610.008495",
            "display" : "Home nursing services"
          } ]
        }
      } ]
    }
  }, {
    "fullUrl" : "urn:uuid:6b20b952-a12b-11ef-d133-09173f13e4c5",
    "resource" : {
      "resourceType" : "Observation",
      "fhir_comments" : [ "ODH History of Employment Status" ],
      "meta" : {
        "profile" : [ "http://hl7.org/fhir/us/odh/StructureDefinition/odh-EmploymentStatus" ]
      },
      "identifier" : [ {
        "system" : "urn:ietf:rfc:3986",
        "value" : "urn:uuid:c1e39467-4b79-474e-9c75-927b45e8616a"
      } ],
      "status" : "final",
      "category" : [ {
        "coding" : [ {
          "system" : "http://terminology.hl7.org/CodeSystem/observation-category",
          "code" : "social-history",
          "display" : "Social History"
        } ]
      } ],
      "code" : {
        "coding" : [ {
          "system" : "http://loinc.org",
          "code" : "74165-2",
          "display" : "History of employment status NIOSH"
        } ]
      },
      "subject" : {
        "reference" : "urn:uuid:6b0c9adc-a12b-11ef-d133-09173f13e4c5"
      },
      "effectivePeriod" : {
        "start" : "2017-01-16T15:47:00+05:30"
      },
      "valueCodeableConcept" : {
        "coding" : [ {
          "system" : "http://terminology.hl7.org/CodeSystem/v3-ObservationValue",
          "code" : "Employed",
          "display" : "Employed"
        } ]
      }
    }
  }, {
    "fullUrl" : "urn:uuid:6b20b9c5-a12b-11ef-d133-09173f13e4c5",
    "resource" : {
      "resourceType" : "Observation",
      "fhir_comments" : [ "Pregnancy Status Observation" ],
      "meta" : {
        "profile" : [ "http://hl7.org/fhir/us/ecr/StructureDefinition/us-ph-pregnancy-status-observation" ]
      },
      "extension" : [ {
        "fhir_comments" : [ "Pregnancy Status Recorded Date", "Date Recorded Extension" ],
        "url" : "http://hl7.org/fhir/us/ecr/StructureDefinition/us-ph-date-recorded-extension",
        "valueDateTime" : "2017-10-01T10:35:00+05:30"
      }, {
        "fhir_comments" : [ "Pregnancy Status Determination Date", "Date Determined Extension" ],
        "url" : "http://hl7.org/fhir/us/ecr/StructureDefinition/us-ph-date-determined-extension",
        "valueDateTime" : "2017-10-01"
      } ],
      "identifier" : [ {
        "system" : "urn:ietf:rfc:3986",
        "value" : "urn:uuid:bab77407-f76d-4a51-a2ed-980c8a59fe28"
      } ],
      "status" : "final",
      "code" : {
        "coding" : [ {
          "system" : "http://loinc.org",
          "code" : "82810-3",
          "display" : "Pregnancy Status"
        } ]
      },
      "subject" : {
        "reference" : "urn:uuid:6b0c9adc-a12b-11ef-d133-09173f13e4c5"
      },
      "effectivePeriod" : {
        "start" : "2017-08-26"
      },
      "performer" : [ {
        "reference" : "urn:uuid:6b20b9d8-a12b-11ef-d133-09173f13e4c5"
      } ],
      "valueCodeableConcept" : {
        "coding" : [ {
          "system" : "http://snomed.info/sct",
          "code" : "77386006",
          "display" : "Pregnant"
        } ]
      },
      "method" : {
        "coding" : [ {
          "system" : "http://snomed.info/sct",
          "code" : "16310003",
          "display" : "Ultrasonography (procedure)"
        } ]
      },
      "component" : [ {
        "extension" : [ {
          "fhir_comments" : [ "", "Date Determined Extension" ],
          "url" : "http://hl7.org/fhir/us/ecr/StructureDefinition/us-ph-date-determined-extension",
          "valueDateTime" : "2017-10-01T10:15:00+05:30"
        } ],
        "code" : {
          "coding" : [ {
            "system" : "http://loinc.org",
            "code" : "11780-4",
            "display" : "Delivery date estimated from ovulation date"
          } ]
        },
        "valueDateTime" : "2017-05-22"
      }, {
        "extension" : [ {
          "fhir_comments" : [ "", "Date Determined Extension" ],
          "url" : "http://hl7.org/fhir/us/ecr/StructureDefinition/us-ph-date-determined-extension",
          "valueDateTime" : "2017-10-01T10:15:00+05:30"
        } ],
        "code" : {
          "coding" : [ {
            "system" : "http://loinc.org",
            "code" : "11887-7",
            "display" : "Gestational age Estimated from selected delivery date"
          } ]
        },
        "valueQuantity" : {
          "value" : 143,
          "unit" : "d"
        }
      } ]
    }
  }, {
    "fullUrl" : "urn:uuid:6b20ba07-a12b-11ef-d133-09173f13e4c5",
    "resource" : {
      "resourceType" : "Observation",
      "fhir_comments" : [ "Pregnancy Outcome Observation" ],
      "meta" : {
        "profile" : [ "http://hl7.org/fhir/us/ecr/StructureDefinition/us-ph-pregnancy-outcome-observation" ]
      },
      "identifier" : [ {
        "system" : "urn:ietf:rfc:3986",
        "value" : "urn:uuid:6df3e951-e6f8-441d-a298-d9d6d3f405db"
      } ],
      "status" : "final",
      "code" : {
        "coding" : [ {
          "system" : "http://loinc.org",
          "code" : "63893-2",
          "display" : "Outcome of pregnancy"
        } ]
      },
      "subject" : {
        "reference" : "urn:uuid:6b0c9adc-a12b-11ef-d133-09173f13e4c5"
      },
      "focus" : [ {
        "fhir_comments" : [ "Reference to related Pregnancy Observation" ],
        "reference" : "urn:uuid:6b20b9c5-a12b-11ef-d133-09173f13e4c5"
      } ],
      "effectiveDateTime" : "2020-01-05T08:50:00+05:30",
      "valueCodeableConcept" : {
        "coding" : [ {
          "system" : "http://snomed.info/sct",
          "code" : "237364002",
          "display" : "Stillbirth (finding)"
        } ]
      },
      "component" : [ {
        "fhir_comments" : [ "Birth Order component" ],
        "code" : {
          "coding" : [ {
            "system" : "http://loinc.org",
            "code" : "73771-8",
            "display" : "Birth order"
          } ]
        },
        "valueInteger" : 1
      } ]
    }
  }, {
    "fullUrl" : "urn:uuid:6b20ba13-a12b-11ef-d133-09173f13e4c5",
    "resource" : {
      "resourceType" : "Observation",
      "fhir_comments" : [ "Last Menstrual Period" ],
      "meta" : {
        "profile" : [ "http://hl7.org/fhir/us/vr-common-library/StructureDefinition/Observation-last-menstrual-period" ]
      },
      "identifier" : [ {
        "system" : "urn:ietf:rfc:3986",
        "value" : "urn:uuid:5ffea0ae-9ae5-4313-956a-30219b4a6afa"
      } ],
      "status" : "final",
      "code" : {
        "coding" : [ {
          "system" : "http://loinc.org",
          "code" : "8665-2",
          "display" : "Last menstrual period start date"
        } ]
      },
      "subject" : {
        "reference" : "urn:uuid:6b0c9adc-a12b-11ef-d133-09173f13e4c5"
      },
      "effectiveDateTime" : "2020-01-05T10:15:00+05:30",
      "valueDateTime" : "2017-08-01",
      "_valueDateTime" : {
        "fhir_comments" : [ "Start of last menstrual period" ]
      }
    }
  }, {
    "fullUrl" : "urn:uuid:6b20ba1e-a12b-11ef-d133-09173f13e4c5",
    "resource" : {
      "resourceType" : "Observation",
      "fhir_comments" : [ "Postpartum Status" ],
      "meta" : {
        "profile" : [ "http://hl7.org/fhir/us/ecr/StructureDefinition/us-ph-postpartum-status" ]
      },
      "identifier" : [ {
        "system" : "urn:ietf:rfc:3986",
        "value" : "urn:uuid:9701b264-0f70-47f9-bfbf-aa4f9686cd3a"
      } ],
      "status" : "final",
      "code" : {
        "coding" : [ {
          "system" : "http://snomed.info/sct",
          "code" : "249197004",
          "display" : "Maternal condition during puerperium (observable entity)"
        } ]
      },
      "subject" : {
        "reference" : "urn:uuid:6b0c9adc-a12b-11ef-d133-09173f13e4c5"
      },
      "effectiveDateTime" : "2020-01-05T10:15:00+05:30",
      "valueCodeableConcept" : {
        "fhir_comments" : [ "Postpartum status" ],
        "coding" : [ {
          "system" : "http://snomed.info/sct",
          "code" : "42814007",
          "display" : "Mid postpartum state (finding)"
        } ]
      }
    }
  }, {
    "fullUrl" : "urn:uuid:6b20ba56-a12b-11ef-d133-09173f13e4c5",
    "resource" : {
      "resourceType" : "Observation",
      "meta" : {
        "profile" : [ "http://hl7.org/fhir/us/core/StructureDefinition/us-core-vital-signs" ]
      },
      "identifier" : [ {
        "system" : "urn:ietf:rfc:3986",
        "value" : "urn:uuid:e421f5c8-29c2-4798-9cb5-7988c236e49d"
      } ],
      "status" : "final",
      "category" : [ {
        "coding" : [ {
          "system" : "http://terminology.hl7.org/CodeSystem/observation-category",
          "code" : "vital-signs"
        } ]
      } ],
      "code" : {
        "coding" : [ {
          "system" : "http://snomed.info/sct",
          "code" : "46680005",
          "display" : "Vital Signs"
        }, {
          "system" : "http://loinc.org",
          "code" : "74728-7",
          "display" : "Vital signs, weight, height, head circumference, oximetry, BMI, and BSA panel"
        } ]
      },
      "subject" : {
        "reference" : "urn:uuid:6b0c9adc-a12b-11ef-d133-09173f13e4c5"
      },
      "effectiveDateTime" : "2014-05-20T19:36:05.000-05:00",
      "hasMember" : [ {
        "reference" : "urn:uuid:6b20ba60-a12b-11ef-d133-09173f13e4c5",
        "_reference" : {
          "fhir_comments" : [ "2.16.840.1.113883.10.20.22.4.27", "2.16.840.1.113883.10.20.22.4.27:2014-06-09" ]
        }
      }, {
        "reference" : "urn:uuid:6b20ba79-a12b-11ef-d133-09173f13e4c5",
        "_reference" : {
          "fhir_comments" : [ "2.16.840.1.113883.10.20.22.4.27", "2.16.840.1.113883.10.20.22.4.27:2014-06-09" ]
        }
      }, {
        "reference" : "urn:uuid:6b20ba84-a12b-11ef-d133-09173f13e4c5",
        "_reference" : {
          "fhir_comments" : [ "2.16.840.1.113883.10.20.22.4.27", "2.16.840.1.113883.10.20.22.4.27:2014-06-09" ]
        }
      }, {
        "reference" : "urn:uuid:6b20ba91-a12b-11ef-d133-09173f13e4c5",
        "_reference" : {
          "fhir_comments" : [ "2.16.840.1.113883.10.20.22.4.27", "2.16.840.1.113883.10.20.22.4.27:2014-06-09" ]
        }
      }, {
        "reference" : "urn:uuid:6b20ba9c-a12b-11ef-d133-09173f13e4c5",
        "_reference" : {
          "fhir_comments" : [ "2.16.840.1.113883.10.20.22.4.27", "2.16.840.1.113883.10.20.22.4.27:2014-06-09" ]
        }
      }, {
        "reference" : "urn:uuid:6b20baa8-a12b-11ef-d133-09173f13e4c5",
        "_reference" : {
          "fhir_comments" : [ "2.16.840.1.113883.10.20.22.4.27", "2.16.840.1.113883.10.20.22.4.27:2014-06-09" ]
        }
      }, {
        "reference" : "urn:uuid:6b20bab4-a12b-11ef-d133-09173f13e4c5",
        "_reference" : {
          "fhir_comments" : [ "2.16.840.1.113883.10.20.22.4.27", "2.16.840.1.113883.10.20.22.4.27:2014-06-09" ]
        }
      }, {
        "reference" : "urn:uuid:6b20babf-a12b-11ef-d133-09173f13e4c5",
        "_reference" : {
          "fhir_comments" : [ "2.16.840.1.113883.10.20.22.4.27", "2.16.840.1.113883.10.20.22.4.27:2014-06-09" ]
        }
      } ]
    }
  }, {
    "fullUrl" : "urn:uuid:6b20ba60-a12b-11ef-d133-09173f13e4c5",
    "resource" : {
      "resourceType" : "Observation",
      "meta" : {
        "profile" : [ "http://hl7.org/fhir/us/core/StructureDefinition/us-core-blood-pressure" ]
      },
      "identifier" : [ {
        "system" : "urn:ietf:rfc:3986",
        "value" : "urn:uuid:2721acc5-0d05-4402-9e62-79943ea3901c"
      } ],
      "status" : "final",
      "category" : [ {
        "coding" : [ {
          "system" : "http://terminology.hl7.org/CodeSystem/observation-category",
          "code" : "vital-signs"
        } ]
      } ],
      "code" : {
        "coding" : [ {
          "system" : "http://loinc.org",
          "code" : "85354-9",
          "display" : "Blood pressure panel with all children optional"
        } ],
        "text" : "Blood pressure systolic and diastolic"
      },
      "subject" : {
        "reference" : "urn:uuid:6b0c9adc-a12b-11ef-d133-09173f13e4c5"
      },
      "effectiveDateTime" : "2014-05-20T19:36:05.000-05:00",
      "note" : [ {
        "text" : "120"
      } ],
      "component" : [ {
        "code" : {
          "coding" : [ {
            "system" : "http://loinc.org",
            "code" : "8480-6",
            "display" : "SYSTOLIC BLOOD PRESSURE"
          } ]
        },
        "valueQuantity" : {
          "value" : 120,
          "unit" : "mm[Hg]",
          "system" : "http://unitsofmeasure.org",
          "code" : "mm[Hg]"
        }
      }, {
        "code" : {
          "coding" : [ {
            "system" : "http://loinc.org",
            "code" : "8462-4",
            "display" : "DIASTOLIC BLOOD PRESSURE"
          } ]
        },
        "valueQuantity" : {
          "value" : 80,
          "unit" : "mm[Hg]",
          "system" : "http://unitsofmeasure.org",
          "code" : "mm[Hg]"
        }
      } ]
    }
  }, {
    "fullUrl" : "urn:uuid:6b20ba79-a12b-11ef-d133-09173f13e4c5",
    "resource" : {
      "resourceType" : "Observation",
      "meta" : {
        "profile" : [ "http://hl7.org/fhir/us/core/StructureDefinition/us-core-vital-signs" ]
      },
      "identifier" : [ {
        "system" : "urn:ietf:rfc:3986",
        "value" : "urn:uuid:83bbffe1-54e5-4984-a32d-ad8f8d6896d8"
      } ],
      "status" : "final",
      "category" : [ {
        "coding" : [ {
          "system" : "http://terminology.hl7.org/CodeSystem/observation-category",
          "code" : "vital-signs"
        } ]
      } ],
      "code" : {
        "coding" : [ {
          "system" : "http://loinc.org",
          "code" : "8867-4",
          "display" : "HEART RATE"
        } ]
      },
      "subject" : {
        "reference" : "urn:uuid:6b0c9adc-a12b-11ef-d133-09173f13e4c5"
      },
      "effectiveDateTime" : "2014-05-20T19:36:05.000-05:00",
      "valueQuantity" : {
        "value" : 80,
        "unit" : "/min",
        "system" : "http://unitsofmeasure.org",
        "code" : "/min"
      },
      "note" : [ {
        "text" : "80 /min"
      } ]
    }
  }, {
    "fullUrl" : "urn:uuid:6b20ba84-a12b-11ef-d133-09173f13e4c5",
    "resource" : {
      "resourceType" : "Observation",
      "meta" : {
        "profile" : [ "http://hl7.org/fhir/us/core/StructureDefinition/us-core-vital-signs" ]
      },
      "identifier" : [ {
        "system" : "urn:ietf:rfc:3986",
        "value" : "urn:uuid:85f5784f-2958-4321-b7b6-3030d1577dc0"
      } ],
      "status" : "final",
      "category" : [ {
        "coding" : [ {
          "system" : "http://terminology.hl7.org/CodeSystem/observation-category",
          "code" : "vital-signs"
        } ]
      } ],
      "code" : {
        "coding" : [ {
          "system" : "http://loinc.org",
          "code" : "8310-5",
          "display" : "BODY TEMPERATURE"
        } ]
      },
      "subject" : {
        "reference" : "urn:uuid:6b0c9adc-a12b-11ef-d133-09173f13e4c5"
      },
      "effectiveDateTime" : "2014-05-20T19:36:05.000-05:00",
      "valueQuantity" : {
        "value" : 99.0,
        "unit" : "[degF]",
        "system" : "http://unitsofmeasure.org",
        "code" : "[degF]"
      },
      "note" : [ {
        "text" : "99.0 F"
      } ]
    }
  }, {
    "fullUrl" : "urn:uuid:6b20ba91-a12b-11ef-d133-09173f13e4c5",
    "resource" : {
      "resourceType" : "Observation",
      "meta" : {
        "profile" : [ "http://hl7.org/fhir/us/core/StructureDefinition/us-core-vital-signs" ]
      },
      "identifier" : [ {
        "system" : "urn:ietf:rfc:3986",
        "value" : "urn:uuid:b618fa98-6596-4e19-a9e7-6bdb48012fc8"
      } ],
      "status" : "final",
      "category" : [ {
        "coding" : [ {
          "system" : "http://terminology.hl7.org/CodeSystem/observation-category",
          "code" : "vital-signs"
        } ]
      } ],
      "code" : {
        "coding" : [ {
          "system" : "http://loinc.org",
          "code" : "9279-1",
          "display" : "RESPIRATORY RATE"
        } ]
      },
      "subject" : {
        "reference" : "urn:uuid:6b0c9adc-a12b-11ef-d133-09173f13e4c5"
      },
      "effectiveDateTime" : "2014-05-20T19:36:05.000-05:00",
      "valueQuantity" : {
        "value" : 18,
        "unit" : "/min",
        "system" : "http://unitsofmeasure.org",
        "code" : "/min"
      },
      "note" : [ {
        "text" : "18 /min"
      } ]
    }
  }, {
    "fullUrl" : "urn:uuid:6b20ba9c-a12b-11ef-d133-09173f13e4c5",
    "resource" : {
      "resourceType" : "Observation",
      "meta" : {
        "profile" : [ "http://hl7.org/fhir/us/core/StructureDefinition/us-core-vital-signs" ]
      },
      "identifier" : [ {
        "system" : "urn:ietf:rfc:3986",
        "value" : "urn:uuid:1b1274a9-b45f-449a-8493-08eaeaeba7d6"
      } ],
      "status" : "final",
      "category" : [ {
        "coding" : [ {
          "system" : "http://terminology.hl7.org/CodeSystem/observation-category",
          "code" : "vital-signs"
        } ]
      } ],
      "code" : {
        "coding" : [ {
          "system" : "http://loinc.org",
          "code" : "8302-2",
          "display" : "Body height"
        } ]
      },
      "subject" : {
        "reference" : "urn:uuid:6b0c9adc-a12b-11ef-d133-09173f13e4c5"
      },
      "effectiveDateTime" : "2014-05-20T19:36:05.000-05:00",
      "valueQuantity" : {
        "value" : 67,
        "unit" : "[in_i]",
        "system" : "http://unitsofmeasure.org",
        "code" : "[in_i]"
      },
      "note" : [ {
        "text" : "5'7 (67 inches)"
      } ]
    }
  }, {
    "fullUrl" : "urn:uuid:6b20baa8-a12b-11ef-d133-09173f13e4c5",
    "resource" : {
      "resourceType" : "Observation",
      "meta" : {
        "profile" : [ "http://hl7.org/fhir/us/core/StructureDefinition/us-core-vital-signs" ]
      },
      "identifier" : [ {
        "system" : "urn:ietf:rfc:3986",
        "value" : "urn:uuid:1c1f89f1-8e93-4a46-b37f-9434f99727b8"
      } ],
      "status" : "final",
      "category" : [ {
        "coding" : [ {
          "system" : "http://terminology.hl7.org/CodeSystem/observation-category",
          "code" : "vital-signs"
        } ]
      } ],
      "code" : {
        "coding" : [ {
          "system" : "http://loinc.org",
          "code" : "29463-7"
        }, {
          "system" : "http://loinc.org",
          "code" : "3141-9",
          "display" : "Body weight Measured"
        } ]
      },
      "subject" : {
        "reference" : "urn:uuid:6b0c9adc-a12b-11ef-d133-09173f13e4c5"
      },
      "effectiveDateTime" : "2014-05-20T19:36:05.000-05:00",
      "valueQuantity" : {
        "value" : 239.9,
        "unit" : "[lb_av]",
        "system" : "http://unitsofmeasure.org",
        "code" : "[lb_av]"
      },
      "note" : [ {
        "text" : "239.9 lbs"
      } ]
    }
  }, {
    "fullUrl" : "urn:uuid:6b20bab4-a12b-11ef-d133-09173f13e4c5",
    "resource" : {
      "resourceType" : "Observation",
      "meta" : {
        "profile" : [ "http://hl7.org/fhir/us/core/StructureDefinition/us-core-vital-signs" ]
      },
      "identifier" : [ {
        "system" : "urn:ietf:rfc:3986",
        "value" : "urn:uuid:fd4ccd0b-c045-4587-8976-a17e2e064a1e"
      } ],
      "status" : "final",
      "category" : [ {
        "coding" : [ {
          "system" : "http://terminology.hl7.org/CodeSystem/observation-category",
          "code" : "vital-signs"
        } ]
      } ],
      "code" : {
        "coding" : [ {
          "system" : "http://loinc.org",
          "code" : "39156-5",
          "display" : "Body mass index (BMI) [Ratio]"
        } ]
      },
      "subject" : {
        "reference" : "urn:uuid:6b0c9adc-a12b-11ef-d133-09173f13e4c5"
      },
      "effectiveDateTime" : "2014-05-20T19:36:05.000-05:00",
      "valueQuantity" : {
        "value" : 37.58,
        "unit" : "kg/m2",
        "system" : "http://unitsofmeasure.org",
        "code" : "kg/m2"
      },
      "note" : [ {
        "text" : "37.58 kg/m2"
      } ]
    }
  }, {
    "fullUrl" : "urn:uuid:6b20babf-a12b-11ef-d133-09173f13e4c5",
    "resource" : {
      "resourceType" : "Observation",
      "meta" : {
        "profile" : [ "http://hl7.org/fhir/us/core/StructureDefinition/us-core-vital-signs" ]
      },
      "identifier" : [ {
        "system" : "urn:ietf:rfc:3986",
        "value" : "urn:uuid:0ef4afda-1638-4ad2-9978-7321bbceb0cb"
      } ],
      "status" : "final",
      "category" : [ {
        "coding" : [ {
          "system" : "http://terminology.hl7.org/CodeSystem/observation-category",
          "code" : "vital-signs"
        } ]
      } ],
      "code" : {
        "coding" : [ {
          "system" : "http://loinc.org",
          "code" : "2708-6"
        }, {
          "system" : "http://loinc.org",
          "code" : "2710-2",
          "display" : "Deprecated Oxygen saturation in Capillary blood by Oximetry"
        } ]
      },
      "subject" : {
        "reference" : "urn:uuid:6b0c9adc-a12b-11ef-d133-09173f13e4c5"
      },
      "effectiveDateTime" : "2014-05-20T19:36:05.000-05:00",
      "valueQuantity" : {
        "value" : 98,
        "unit" : "%",
        "system" : "http://unitsofmeasure.org",
        "code" : "%"
      },
      "note" : [ {
        "text" : "98%"
      } ]
    }
  }, {
    "fullUrl" : "urn:uuid:6b20bade-a12b-11ef-d133-09173f13e4c5",
    "resource" : {
      "resourceType" : "Observation",
      "fhir_comments" : [ "Processing as generic observation: 2.16.840.1.113883.10.20.15.2.3.40:" ],
      "meta" : {
        "profile" : [ "http://hl7.org/fhir/us/ecr/StructureDefinition/us-ph-emergency-outbreak-information" ]
      },
      "identifier" : [ {
        "system" : "urn:ietf:rfc:3986",
        "value" : "urn:uuid:ab1791b0-5c71-11db-b0de-0800200c9a54"
      } ],
      "status" : "final",
      "code" : {
        "coding" : [ {
          "extension" : [ {
            "url" : "http://hl7.org/fhir/StructureDefinition/data-absent-reason",
            "valueCode" : "unknown"
          } ]
        } ],
        "text" : "Employee desk distance from mail sorter"
      },
      "subject" : {
        "reference" : "urn:uuid:6b0c9adc-a12b-11ef-d133-09173f13e4c5"
      },
      "effectivePeriod" : {
        "start" : "2020-11-01"
      },
      "issued" : "2020-11-07T09:44:21.000-05:00",
      "_issued" : {
        "fhir_comments" : [ "INFO: Using document effective time as issued date" ]
      },
      "valueQuantity" : {
        "value" : 2,
        "unit" : "m"
      },
      "hasMember" : [ {
        "reference" : "urn:uuid:6b20bae8-a12b-11ef-d133-09173f13e4c5",
        "_reference" : {
          "fhir_comments" : [ "2.16.840.1.113883.10.20.15.2.3.40:2021-01-01" ]
        }
      } ]
    }
  }, {
    "fullUrl" : "urn:uuid:6b20bae8-a12b-11ef-d133-09173f13e4c5",
    "resource" : {
      "resourceType" : "Observation",
      "fhir_comments" : [ "Processing as generic observation: 2.16.840.1.113883.10.20.15.2.3.40:" ],
      "meta" : {
        "profile" : [ "http://hl7.org/fhir/us/ecr/StructureDefinition/us-ph-emergency-outbreak-information" ]
      },
      "identifier" : [ {
        "system" : "urn:ietf:rfc:3986",
        "value" : "urn:uuid:ab1791b0-5c71-11db-b0de-0800200c9a54"
      } ],
      "status" : "final",
      "code" : {
        "coding" : [ {
          "extension" : [ {
            "url" : "http://hl7.org/fhir/StructureDefinition/data-absent-reason",
            "valueCode" : "unknown"
          } ]
        } ],
        "text" : "Location of sorter"
      },
      "subject" : {
        "reference" : "urn:uuid:6b0c9adc-a12b-11ef-d133-09173f13e4c5"
      },
      "effectivePeriod" : {
        "start" : "2020-11-01"
      },
      "issued" : "2020-11-07T09:44:21.000-05:00",
      "_issued" : {
        "fhir_comments" : [ "INFO: Using document effective time as issued date" ]
      },
      "valueString" : "north side of building room 205"
    }
  }, {
    "fullUrl" : "urn:uuid:6b20baf3-a12b-11ef-d133-09173f13e4c5",
    "resource" : {
      "resourceType" : "Observation",
      "fhir_comments" : [ "Processing as generic observation: 2.16.840.1.113883.10.20.15.2.3.40:" ],
      "meta" : {
        "profile" : [ "http://hl7.org/fhir/us/ecr/StructureDefinition/us-ph-emergency-outbreak-information" ]
      },
      "identifier" : [ {
        "system" : "urn:ietf:rfc:3986",
        "value" : "urn:uuid:ab1791b0-5c71-11db-b0de-0800200c9a54"
      } ],
      "status" : "final",
      "code" : {
        "coding" : [ {
          "extension" : [ {
            "url" : "http://hl7.org/fhir/StructureDefinition/data-absent-reason",
            "valueCode" : "unknown"
          } ]
        } ],
        "text" : "Number of mail pieces through sorter per hour"
      },
      "subject" : {
        "reference" : "urn:uuid:6b0c9adc-a12b-11ef-d133-09173f13e4c5"
      },
      "effectivePeriod" : {
        "start" : "2020-11-01"
      },
      "issued" : "2020-11-07T09:44:21.000-05:00",
      "_issued" : {
        "fhir_comments" : [ "INFO: Using document effective time as issued date" ]
      },
      "valueQuantity" : {
        "value" : 1000,
        "unit" : "h"
      },
      "hasMember" : [ {
        "reference" : "urn:uuid:6b20bafd-a12b-11ef-d133-09173f13e4c5",
        "_reference" : {
          "fhir_comments" : [ "2.16.840.1.113883.10.20.15.2.3.40:2021-01-01" ]
        }
      } ]
    }
  }, {
    "fullUrl" : "urn:uuid:6b20bafd-a12b-11ef-d133-09173f13e4c5",
    "resource" : {
      "resourceType" : "Observation",
      "fhir_comments" : [ "Processing as generic observation: 2.16.840.1.113883.10.20.15.2.3.40:" ],
      "meta" : {
        "profile" : [ "http://hl7.org/fhir/us/ecr/StructureDefinition/us-ph-emergency-outbreak-information" ]
      },
      "identifier" : [ {
        "system" : "urn:ietf:rfc:3986",
        "value" : "urn:uuid:ab1791b0-5c71-11db-b0de-0800200c9a54"
      } ],
      "status" : "final",
      "code" : {
        "coding" : [ {
          "extension" : [ {
            "url" : "http://hl7.org/fhir/StructureDefinition/data-absent-reason",
            "valueCode" : "unknown"
          } ]
        } ],
        "text" : "sorter ID"
      },
      "subject" : {
        "reference" : "urn:uuid:6b0c9adc-a12b-11ef-d133-09173f13e4c5"
      },
      "effectivePeriod" : {
        "start" : "2020-11-01"
      },
      "issued" : "2020-11-07T09:44:21.000-05:00",
      "_issued" : {
        "fhir_comments" : [ "INFO: Using document effective time as issued date" ]
      },
      "valueString" : "205B"
    }
  }, {
    "fullUrl" : "urn:uuid:6b20bb20-a12b-11ef-d133-09173f13e4c5",
    "resource" : {
      "resourceType" : "Observation",
      "fhir_comments" : [ "Relevant Reportable Condition Observation" ],
      "meta" : {
        "profile" : [ "http://hl7.org/fhir/us/ecr/StructureDefinition/rr-relevant-reportable-condition-observation" ]
      },
      "identifier" : [ {
        "system" : "urn:ietf:rfc:3986",
        "value" : "urn:uuid:a054d401-7b23-4b15-bc28-c889c156ba6a"
      } ],
      "status" : "final",
      "code" : {
        "coding" : [ {
          "system" : "http://snomed.info/sct",
          "code" : "64572001",
          "display" : "Disease (disorder)"
        }, {
          "system" : "http://loinc.org",
          "code" : "75323-6",
          "display" : "Condition"
        } ]
      },
      "subject" : {
        "reference" : "urn:uuid:6b0c9adc-a12b-11ef-d133-09173f13e4c5"
      },
      "valueCodeableConcept" : {
        "coding" : [ {
          "system" : "http://snomed.info/sct",
          "code" : "3928002",
          "display" : "Zika virus disease (disorder)"
        } ]
      },
      "hasMember" : [ {
        "reference" : "urn:uuid:6b20bb2a-a12b-11ef-d133-09173f13e4c5",
        "_reference" : {
          "fhir_comments" : [ "2.16.840.1.113883.10.20.15.2.3.13:2017-04-01" ]
        }
      } ]
    }
  }, {
    "fullUrl" : "urn:uuid:6b20bb2a-a12b-11ef-d133-09173f13e4c5",
    "resource" : {
      "resourceType" : "Observation",
      "fhir_comments" : [ "Reportability Information Observation" ],
      "meta" : {
        "profile" : [ "http://hl7.org/fhir/us/ecr/StructureDefinition/rr-reportability-information-observation" ]
      },
      "extension" : [ {
        "fhir_comments" : [ "RR Determination of Reportability" ],
        "url" : "http://hl7.org/fhir/us/ecr/StructureDefinition/us-ph-determination-of-reportability-extension",
        "valueCodeableConcept" : {
          "coding" : [ {
            "system" : "urn:oid:2.16.840.1.114222.4.5.274",
            "code" : "RRVS1",
            "display" : "Reportable"
          } ]
        }
      }, {
        "fhir_comments" : [ "Determination of Reportability Reason Extension" ],
        "url" : "http://hl7.org/fhir/us/ecr/StructureDefinition/us-ph-determination-of-reportability-reason-extension",
        "valueString" : "Reason for determination of reportability"
      }, {
        "fhir_comments" : [ "Determination of Reportability Rule Extension" ],
        "url" : "http://hl7.org/fhir/us/ecr/StructureDefinition/us-ph-determination-of-reportability-rule-extension",
        "valueString" : "Rule used in reportability determination"
      } ],
      "identifier" : [ {
        "system" : "urn:ietf:rfc:3986",
        "value" : "urn:uuid:fcf92143-4289-450e-9550-8d574facf626"
      } ],
      "status" : "final",
      "code" : {
        "coding" : [ {
          "system" : "urn:oid:2.16.840.1.114222.4.5.274",
          "code" : "RRVS7",
          "display" : "Both patient home address and provider facility address"
        } ]
      },
      "subject" : {
        "reference" : "urn:uuid:6b0c9adc-a12b-11ef-d133-09173f13e4c5"
      },
      "performer" : [ {
        "fhir_comments" : [ "Rules Authoring Agency, Routing Entity, Responsible Agency" ],
        "reference" : "urn:uuid:6b20bb33-a12b-11ef-d133-09173f13e4c5"
      }, {
        "fhir_comments" : [ "Rules Authoring Agency, Routing Entity, Responsible Agency" ],
        "reference" : "urn:uuid:6b20bb49-a12b-11ef-d133-09173f13e4c5"
      }, {
        "fhir_comments" : [ "Rules Authoring Agency, Routing Entity, Responsible Agency" ],
        "reference" : "urn:uuid:6b20bb5e-a12b-11ef-d133-09173f13e4c5"
      } ],
      "component" : [ {
        "code" : {
          "coding" : [ {
            "system" : "urn:oid:2.16.840.1.114222.4.5.232",
            "code" : "RR4",
            "display" : "Timeframe to report (urgency)"
          } ]
        },
        "valueQuantity" : {
          "_value" : {
            "extension" : [ {
              "url" : "http://hl7.org/fhir/StructureDefinition/data-absent-reason",
              "valueCode" : "unknown"
            } ]
          },
          "_unit" : {
            "extension" : [ {
              "url" : "http://hl7.org/fhir/StructureDefinition/data-absent-reason",
              "valueCode" : "unknown"
            } ]
          }
        }
      } ]
    }
  }, {
    "fullUrl" : "urn:uuid:6b20bb33-a12b-11ef-d133-09173f13e4c5",
    "resource" : {
      "resourceType" : "Organization",
      "meta" : {
        "profile" : [ "http://hl7.org/fhir/us/ecr/StructureDefinition/rr-responsible-agency-organization" ]
      },
      "identifier" : [ {
        "fhir_comments" : [ "participant[LOC]" ],
        "system" : "http://hl7.org/fhir/sid/us-npi",
        "value" : "chi"
      } ],
      "active" : true,
      "type" : [ {
        "coding" : [ {
          "system" : "urn:oid:2.16.840.1.114222.4.5.232",
          "code" : "RR8",
          "display" : "Responsible Agency"
        } ]
      } ],
      "name" : "State Department of Health",
      "telecom" : [ {
        "system" : "phone",
        "value" : "+1-555-555-3555",
        "use" : "work"
      }, {
        "system" : "fax",
        "value" : "+1-955-555-3555",
        "use" : "work"
      }, {
        "system" : "email",
        "value" : "mail@healthauthoritywest.gov",
        "use" : "work"
      }, {
        "system" : "url",
        "value" : "https://www.healthauthoritywest.gov",
        "use" : "work"
      } ],
      "address" : [ {
        "use" : "work",
        "line" : [ "7777 Health Authority Drive" ],
        "state" : "State",
        "postalCode" : "99999"
      } ]
    }
  }, {
    "fullUrl" : "urn:uuid:6b20bb49-a12b-11ef-d133-09173f13e4c5",
    "resource" : {
      "resourceType" : "Organization",
      "meta" : {
        "profile" : [ "http://hl7.org/fhir/us/ecr/StructureDefinition/rr-rules-authoring-agency-organization" ]
      },
      "identifier" : [ {
        "fhir_comments" : [ "participant[LOC]" ],
        "system" : "http://hl7.org/fhir/sid/us-npi",
        "value" : "chi"
      } ],
      "active" : true,
      "type" : [ {
        "coding" : [ {
          "system" : "urn:oid:2.16.840.1.114222.4.5.232",
          "code" : "RR12",
          "display" : "Rules Authoring Agency"
        } ]
      } ],
      "name" : "State Department of Health",
      "telecom" : [ {
        "system" : "phone",
        "value" : "+1-555-555-3555",
        "use" : "work"
      }, {
        "system" : "fax",
        "value" : "+1-955-555-3555",
        "use" : "work"
      }, {
        "system" : "email",
        "value" : "mail@healthauthoritywest.gov",
        "use" : "work"
      }, {
        "system" : "url",
        "value" : "https://www.healthauthoritywest.gov",
        "use" : "work"
      } ],
      "address" : [ {
        "use" : "work",
        "line" : [ "7777 Health Authority Drive" ],
        "city" : "City",
        "state" : "State",
        "postalCode" : "99999"
      } ]
    }
  }, {
    "fullUrl" : "urn:uuid:6b20bb5e-a12b-11ef-d133-09173f13e4c5",
    "resource" : {
      "resourceType" : "Organization",
      "meta" : {
        "profile" : [ "http://hl7.org/fhir/us/ecr/StructureDefinition/rr-routing-entity-organization" ]
      },
      "identifier" : [ {
        "fhir_comments" : [ "participant[LOC]" ],
        "system" : "http://hl7.org/fhir/sid/us-npi",
        "value" : "chi"
      } ],
      "active" : true,
      "type" : [ {
        "coding" : [ {
          "system" : "urn:oid:2.16.840.1.114222.4.5.232",
          "code" : "RR7",
          "display" : "Routing Entity"
        } ]
      } ],
      "name" : "State Department of Health Routing Agency",
      "telecom" : [ {
        "system" : "phone",
        "value" : "+1-555-555-3555",
        "use" : "work"
      }, {
        "system" : "fax",
        "value" : "+1-955-555-3555",
        "use" : "work"
      }, {
        "system" : "email",
        "value" : "mail@healthauthoritywest.gov",
        "use" : "work"
      }, {
        "system" : "url",
        "value" : "https://www.healthauthoritywest.gov",
        "use" : "work"
      } ],
      "address" : [ {
        "use" : "work",
        "line" : [ "7777 Health Authority Drive" ],
        "city" : "City",
        "state" : "State",
        "postalCode" : "99999"
      } ]
    }
  }, {
    "fullUrl" : "Observation/observation-rr-relevant-reportable-condition-observation",
    "resource" : {
      "resourceType" : "Observation",
      "id" : "observation-rr-relevant-reportable-condition-observation",
      "meta" : {
        "versionId" : "4",
        "lastUpdated" : "2021-08-17T07:59:01.040+00:00",
        "source" : "#rU2tzvaNrwcg0mRI",
        "profile" : [ "http://hl7.org/fhir/us/ecr/StructureDefinition/rr-relevant-reportable-condition-observation" ]
      },
      "text" : {
        "status" : "generated",
        "div" : "<div xmlns=\"http://www.w3.org/1999/xhtml\"> The RR Relevant Reportable Condition Observation does not contain narrative text. The information from this resource is parsed and contained in <a href=\"StructureDefinition-rr-composition-definitions.html#Composition.section:sliceRRSummarySection.text\">Composition[rr-composition].section:sliceRRSummarySection.text</a> according\n                        to the guidlines set out here: <a href=\"reportability_response_narrative_guidance.html\">Reportability Response Narrative Guidance</a>. </div>"
      },
      "status" : "final",
      "code" : {
        "coding" : [ {
          "system" : "http://snomed.info/sct",
          "code" : "64572001"
        }, {
          "system" : "http://loinc.org",
          "code" : "75323-6"
        } ],
        "text" : "Condition"
      },
      "valueCodeableConcept" : {
        "coding" : [ {
          "system" : "http://snomed.info/sct",
          "code" : "3928002",
          "display" : "Zika virus disease (disorder)"
        } ]
      },
      "hasMember" : [ {
        "reference" : "Observation/observation-rr-reportability-information-observation"
      } ]
    }
  }, {
    "fullUrl" : "Observation/observation-rr-reportability-information-observation",
    "resource" : {
      "resourceType" : "Observation",
      "id" : "observation-rr-reportability-information-observation",
      "meta" : {
        "versionId" : "1",
        "lastUpdated" : "2021-07-21T03:10:13.946+00:00",
        "source" : "#l0j1zEVQ0pIebyt5",
        "profile" : [ "http://hl7.org/fhir/us/ecr/StructureDefinition/rr-reportability-information-observation" ]
      },
      "text" : {
        "status" : "extensions",
        "div" : "<div xmlns=\"http://www.w3.org/1999/xhtml\"><a name=\"Observation_observation-rr-reportability-information-observation\"> </a><p class=\"res-header-id\"><b>Generated Narrative: Observation observation-rr-reportability-information-observation</b></p><a name=\"observation-rr-reportability-information-observation\"> </a><a name=\"hcobservation-rr-reportability-information-observation\"> </a><a name=\"observation-rr-reportability-information-observation-en-US\"> </a><div style=\"display: inline-block; background-color: #d9e0e7; padding: 6px; margin: 4px; border: 1px solid #8da1b4; border-radius: 5px; line-height: 60%\"><p style=\"margin-bottom: 0px\">version: 1; Last updated: 2021-07-21 03:10:13+0000; </p><p style=\"margin-bottom: 0px\">Information Source: #l0j1zEVQ0pIebyt5</p><p style=\"margin-bottom: 0px\">Profile: <a href=\"StructureDefinition-rr-reportability-information-observation.html\">RR Reportability Information Observation</a></p></div><p><b>US Public Health Determination of Reportability Extension</b>: <span title=\"Codes:{urn:oid:2.16.840.1.114222.4.5.274 RRVS1}\">Reportable</span></p><p><b>US Public Health Determination of Reportability Reason Extension</b>: Condition is reportable</p><p><b>US Public Health Determination of Reportability Rule Extension</b>: Description of rule used in reportability determination</p><p><b>RR External Resource Extension</b>: <a href=\"DocumentReference-documentreference-zika-info-pdf.html\">DocumentReference: extension = Immediate action required; status = current; type = Public health Note; category = Outbreak- or Cluster Related; description = Local mosquito-borne Zika virus creation was reported in your area. Increased watchfulness for symptoms of Zika virus in your patients is warranted.</a></p><p><b>RR External Resource Extension</b>: <a href=\"DocumentReference-documentreference-add-reporting-needs-pdf.html\">DocumentReference: extension = Action requested; status = current; type = Public health Note; category = Additional reporting needs; description = Additional information for the required reporting of Zika must be submitted to State Department of Health immediately. This additional information can be submitted here.</a></p><p><b>RR External Resource Extension</b>: <a href=\"DocumentReference-documentreference-zika-follow-up-pdf.html\">DocumentReference: extension = Immediate action requested; status = current; type = Public health Note; category = Treatment and/or prevention; description = Zika has particular risks for pregnant women. Follow-up guidance for pregnant women and couples who are planning pregnancy.</a></p><p><b>status</b>: Final</p><p><b>code</b>: <span title=\"Codes:{urn:oid:2.16.840.1.114222.4.5.274 RRVS5}\">Patient home address</span></p><p><b>performer</b>: </p><ul><li><a href=\"Organization-organization-rr-rules-authoring-agency-haw.html\">Health Authority West Rules Authoring Agency</a></li><li><a href=\"Organization-organization-rr-routing-entity-haw.html\">Health Authority West Routing Entity</a></li><li><a href=\"Organization-organization-rr-responsible-agency-haw.html\">Health Authority West Routing Entity</a></li></ul><h3>Components</h3><table class=\"grid\"><tr><td style=\"display: none\">-</td><td><b>Code</b></td><td><b>Value[x]</b></td></tr><tr><td style=\"display: none\">*</td><td><span title=\"Codes:{urn:oid:2.16.840.1.114222.4.5.232 RR4}\">Timeframe to report (urgency)</span></td><td>24 H<span style=\"background: LightGoldenRodYellow\"> (Details: UCUM  codeH = 'H')</span></td></tr></table></div>"
      },
      "extension" : [ {
        "url" : "http://hl7.org/fhir/us/ecr/StructureDefinition/us-ph-determination-of-reportability-extension",
        "valueCodeableConcept" : {
          "coding" : [ {
            "system" : "urn:oid:2.16.840.1.114222.4.5.274",
            "code" : "RRVS1",
            "display" : "Reportable"
          } ]
        }
      }, {
        "url" : "http://hl7.org/fhir/us/ecr/StructureDefinition/us-ph-determination-of-reportability-reason-extension",
        "valueString" : "Condition is reportable"
      }, {
        "url" : "http://hl7.org/fhir/us/ecr/StructureDefinition/us-ph-determination-of-reportability-rule-extension",
        "valueString" : "Description of rule used in reportability determination"
      }, {
        "url" : "http://hl7.org/fhir/us/ecr/StructureDefinition/rr-external-resource-extension",
        "valueReference" : {
          "reference" : "DocumentReference/documentreference-zika-info-pdf"
        }
      }, {
        "url" : "http://hl7.org/fhir/us/ecr/StructureDefinition/rr-external-resource-extension",
        "valueReference" : {
          "reference" : "DocumentReference/documentreference-add-reporting-needs-pdf"
        }
      }, {
        "url" : "http://hl7.org/fhir/us/ecr/StructureDefinition/rr-external-resource-extension",
        "valueReference" : {
          "reference" : "DocumentReference/documentreference-zika-follow-up-pdf"
        }
      } ],
      "status" : "final",
      "code" : {
        "coding" : [ {
          "system" : "urn:oid:2.16.840.1.114222.4.5.274",
          "code" : "RRVS5",
          "display" : "Patient home address"
        } ]
      },
      "performer" : [ {
        "reference" : "Organization/organization-rr-routing-entity-haw"
      } ],
      "component" : [ {
        "code" : {
          "coding" : [ {
            "system" : "urn:oid:2.16.840.1.114222.4.5.232",
            "code" : "RR4",
            "display" : "Timeframe to report (urgency)"
          } ]
        },
        "valueQuantity" : {
          "value" : 24,
          "unit" : "H",
          "system" : "http://unitsofmeasure.org",
          "code" : "H"
        }
      } ]
    }
  }, {
    "fullUrl" : "Organization/organization-rr-routing-entity-haw",
    "resource" : {
      "resourceType" : "Organization",
      "id" : "organization-rr-routing-entity-haw",
      "meta" : {
        "versionId" : "4",
        "lastUpdated" : "2021-06-30T04:13:19.350+00:00",
        "source" : "#JxDnX4nN1kOgPTNr",
        "profile" : [ "http://hl7.org/fhir/us/ecr/StructureDefinition/rr-routing-entity-organization" ]
      },
      "text" : {
        "status" : "generated",
        "div" : "<div xmlns=\"http://www.w3.org/1999/xhtml\"><a name=\"Organization_organization-rr-routing-entity-haw\"> </a><p class=\"res-header-id\"><b>Generated Narrative: Organization organization-rr-routing-entity-haw</b></p><a name=\"organization-rr-routing-entity-haw\"> </a><a name=\"hcorganization-rr-routing-entity-haw\"> </a><a name=\"organization-rr-routing-entity-haw-en-US\"> </a><div style=\"display: inline-block; background-color: #d9e0e7; padding: 6px; margin: 4px; border: 1px solid #8da1b4; border-radius: 5px; line-height: 60%\"><p style=\"margin-bottom: 0px\">version: 4; Last updated: 2021-06-30 04:13:19+0000; </p><p style=\"margin-bottom: 0px\">Information Source: #JxDnX4nN1kOgPTNr</p><p style=\"margin-bottom: 0px\">Profile: <a href=\"StructureDefinition-rr-routing-entity-organization.html\">Routing Entity Organization</a></p></div><p><b>identifier</b>: <code>http://hl7.org.fhir/sid/us-npi</code>/43214321</p><p><b>active</b>: true</p><p><b>type</b>: <span title=\"Codes:{urn:oid:2.16.840.1.114222.4.5.232 RR7}\">Routing Entity</span></p><p><b>name</b>: Health Authority West Routing Entity</p><p><b>telecom</b>: <a href=\"tel:+1-555-555-3555\">+1-555-555-3555</a>, <a href=\"mailto:mail@healthauthoritywest.gov\">mail@healthauthoritywest.gov</a></p><p><b>address</b>: 7777 Health Authority Drive Ann Arbor MI 99999 </p></div>"
      },
      "identifier" : [ {
        "system" : "http://hl7.org.fhir/sid/us-npi",
        "value" : "chi"
      } ],
      "active" : true,
      "type" : [ {
        "coding" : [ {
          "system" : "urn:oid:2.16.840.1.114222.4.5.232",
          "code" : "RR7",
          "display" : "Routing Entity"
        } ]
      } ],
      "name" : "Health Authority West Routing Entity",
      "telecom" : [ {
        "system" : "phone",
        "value" : "+1-555-555-3555"
      }, {
        "system" : "email",
        "value" : "mail@healthauthoritywest.gov"
      } ],
      "address" : [ {
        "line" : [ "7777 Health Authority Drive" ],
        "city" : "Ann Arbor",
        "state" : "MI",
        "postalCode" : "99999"
      } ]
    }
  } ]
}